;Title, http://www.gcdataconcepts.com, x2-2,Kionix KXRB5-2050
;Version, 1102, Build date, Oct  6 2015,  SN:CCDC10023F56AE8
;Start_time, 2007-01-02, 00:19:12.760
;Temperature, -999.00, deg C,  Vbat, 4174, mv
;Gain, high
;SampleRate, 64,Hz
;Deadband, 0, counts
;DeadbandTimeout, 0,sec
;Headers, time,Ax,Ay,Az
0.377380,-563,255,-13160
0.393005,-565,257,-13190
0.408630,-547,260,-13131
0.424255,-604,330,-13154
0.439880,-579,283,-13167
0.455505,-502,203,-13136
0.471130,-588,307,-13151
0.502380,-588,298,-13151
0.518005,-504,205,-13169
0.533630,-611,307,-13179
0.549255,-643,316,-13147
0.564880,-540,214,-13149
0.580505,-593,289,-13136
0.596130,-643,307,-13167
0.611755,-559,216,-13174
0.627380,-570,260,-13110
0.643005,-606,314,-13170
0.658630,-581,303,-13115
0.674255,-588,291,-13076
0.689880,-572,258,-13283
0.705505,-583,266,-13195
0.721130,-620,296,-13042
0.736755,-565,258,-13179
0.752380,-550,239,-13122
0.768005,-583,276,-13092
0.783630,-572,312,-13245
0.799255,-579,323,-13147
0.814880,-558,276,-13126
0.830505,-527,226,-13201
0.846130,-581,260,-13085
0.861755,-640,307,-13124
0.877380,-567,233,-13204
0.893005,-483,153,-13176
0.908630,-584,235,-13208
0.924255,-602,253,-13145
0.939880,-463,153,-13126
0.955505,-502,237,-13229
0.971130,-572,317,-13160
0.986755,-483,237,-13136
1.002380,-474,228,-13245
1.018005,-559,253,-13160
1.033630,-597,235,-13088
1.049255,-577,196,-13201
1.064880,-534,160,-13197
1.080505,-583,228,-13117
1.096130,-575,262,-13167
1.111755,-438,198,-13176
1.127380,-422,233,-13119
1.143005,-504,319,-13167
1.158630,-515,258,-13201
1.174255,-465,174,-13181
1.189880,-504,217,-13188
1.205505,-615,249,-13131
1.221130,-615,217,-13078
1.236755,-531,144,-13111
1.252380,-445,183,-13388
1.268005,-409,317,-13647
1.283630,-356,171,-13242
1.299255,-395,21,-12688
1.314880,-525,96,-12654
1.330505,-381,91,-12967
1.346130,-325,155,-13395
1.361755,-502,278,-13417
1.377380,-658,316,-13044
1.393005,-765,296,-12940
1.408630,-643,223,-13194
1.424255,-552,287,-13424
1.439880,-534,344,-13340
1.455505,-472,249,-13179
1.471130,-486,169,-13111
1.486755,-493,198,-12990
1.502380,-602,332,-13049
1.518005,-624,328,-13226
1.533630,-483,249,-13254
1.549255,-486,280,-13338
1.564880,-479,258,-13331
1.580505,-495,155,-13019
1.596130,-643,160,-12801
1.611755,-754,321,-12981
1.627380,-656,424,-13354
1.643005,-556,389,-13456
1.658630,-570,282,-13188
1.674255,-616,207,-12949
1.689880,-695,273,-13006
1.705505,-702,358,-13242
1.721130,-754,428,-13331
1.736755,-866,412,-13179
1.752380,-875,339,-13022
1.768005,-838,349,-13024
1.783630,-804,351,-13092
1.799255,-768,373,-13142
1.814880,-788,419,-13158
1.830505,-811,441,-13224
1.846130,-745,483,-13338
1.861755,-609,380,-13306
1.877380,-492,187,-13124
1.893005,-442,85,-12958
1.908630,-374,28,-12981
1.924255,-302,69,-13240
1.939880,-311,132,-13347
1.955505,-306,94,-13236
1.971130,-270,53,-13217
1.986755,-183,16,-13153
2.002380,-122,-34,-13103
2.018005,-199,-47,-13163
2.033630,-11,24,-13178
2.049255,-213,-83,-13558
2.064880,98,-488,-13988
2.080505,2585,-945,-14144
2.096130,5111,-2211,-13788
2.111755,7036,-4573,-11990
2.127380,8770,-5398,-10835
2.143005,8254,-3232,-9782
2.158630,8829,-2223,-9153
2.174255,8752,524,-13153
2.189880,316,8334,-16941
2.205505,-3932,10159,-16632
2.221130,-1772,8109,-14524
2.236755,-4329,6731,-12378
2.252380,-5844,3383,-9582
2.268005,-6752,2563,-6523
2.283630,-7321,1660,-6184
2.299255,-4409,694,-8717
2.314880,-1666,1103,-13301
2.330505,578,1403,-16341
2.346130,1580,2360,-16466
2.361755,1087,3092,-16591
2.377380,78,2626,-16136
2.393005,-1566,1639,-12986
2.408630,-2854,1057,-9387
2.424255,-3796,26,-7585
2.439880,-3447,-500,-7717
2.455505,-2061,108,-10512
2.471130,-900,889,-13785
2.486755,360,1528,-15720
2.502380,969,2208,-16786
2.518005,632,2071,-16663
2.533630,108,1076,-14552
2.549255,-300,308,-11958
2.564880,-729,-447,-9732
2.580505,-981,-1027,-8592
2.596130,-716,-683,-10512
2.611755,-190,499,-13245
2.627380,58,1158,-15111
2.643005,251,1628,-16474
2.658630,348,1796,-16265
2.674255,44,967,-14285
2.689880,-272,144,-12265
2.705505,-413,-420,-10737
2.721130,-511,-863,-10017
2.736755,-427,-445,-11365
2.752380,-159,537,-13485
2.768005,-18,1003,-14735
2.783630,67,1376,-15504
2.799255,73,1478,-15268
2.814880,-120,746,-13513
2.830505,-304,92,-12019
2.846130,-375,-181,-11328
2.861755,-418,-420,-11183
2.877380,-317,-42,-12415
2.893005,-93,637,-14004
2.908630,-8,821,-14617
2.924255,7,917,-14726
2.939880,-25,824,-14117
2.955505,-200,321,-12715
2.971130,-327,21,-11867
2.986755,-325,17,-11869
3.002380,-277,101,-12374
3.018005,-125,474,-13470
3.033630,5,790,-14324
3.049255,0,749,-14293
3.064880,-38,596,-13797
3.080505,-150,298,-12945
3.096130,-309,-17,-12154
3.111755,-333,-9,-12104
3.127380,-288,201,-12644
3.143005,-206,516,-13429
3.158630,-86,812,-14060
3.174255,-72,849,-14088
3.189880,-118,685,-13604
3.205505,-179,382,-12883
3.221130,-281,128,-12347
3.236755,-318,99,-12337
3.252380,-300,217,-12792
3.268005,-240,489,-13522
3.283630,-184,715,-13935
3.299255,-225,715,-13827
3.314880,-256,648,-13451
3.330505,-311,430,-12787
3.346130,-374,237,-12390
3.361755,-338,321,-12612
3.377380,-309,446,-12985
3.393005,-249,614,-13522
3.408630,-167,774,-13908
3.424255,-236,665,-13647
3.439880,-331,501,-13199
3.455505,-392,392,-12779
3.471130,-474,253,-12474
3.486755,-454,339,-12699
3.502380,-377,569,-13192
3.518005,-317,690,-13563
3.533630,-247,783,-13772
3.549255,-252,753,-13558
3.564880,-327,544,-13063
3.580505,-377,399,-12724
3.596130,-418,330,-12597
3.611755,-415,358,-12795
3.627380,-374,537,-13274
3.643005,-358,676,-13594
3.658630,-338,719,-13635
3.674255,-343,662,-13413
3.689880,-392,507,-12983
3.705505,-413,403,-12701
3.721130,-390,398,-12729
3.736755,-349,464,-12985
3.752380,-315,594,-13360
3.768005,-284,685,-13599
3.783630,-292,685,-13529
3.799255,-361,589,-13236
3.814880,-392,432,-12917
3.830505,-356,312,-12763
3.846130,-325,294,-12851
3.861755,-288,416,-13158
3.877380,-249,574,-13445
3.893005,-238,630,-13535
3.908630,-245,653,-13440
3.924255,-300,582,-13111
3.939880,-361,428,-12813
3.955505,-370,426,-12792
3.971130,-377,451,-12903
3.986755,-359,494,-13194
4.002380,-286,617,-13515
4.018005,-234,582,-13495
4.033630,-252,524,-13290
4.049255,-304,516,-13040
4.064880,-338,412,-12799
4.080505,-318,398,-12858
4.096130,-272,480,-13088
4.111755,-267,553,-13283
4.127380,-229,617,-13497
4.143005,-192,546,-13451
4.158630,-220,423,-13160
4.174255,-238,371,-12972
4.189880,-267,310,-12858
4.205505,-275,328,-12922
4.221130,-208,444,-13201
4.236755,-179,530,-13388
4.252380,-181,582,-13429
4.268005,-170,537,-13333
4.283630,-204,419,-13099
4.299255,-243,364,-12915
4.314880,-252,344,-12894
4.330505,-240,383,-13044
4.346130,-218,478,-13265
4.361755,-197,523,-13390
4.377380,-204,535,-13394
4.393005,-224,476,-13240
4.408630,-240,373,-13010
4.424255,-243,355,-12897
4.439880,-233,373,-12945
4.455505,-231,446,-13147
4.471130,-225,546,-13370
4.486755,-233,555,-13410
4.502380,-268,544,-13333
4.518005,-281,491,-13161
4.533630,-309,369,-12942
4.549255,-327,373,-12922
4.564880,-299,462,-13056
4.580505,-286,499,-13208
4.596130,-254,569,-13394
4.611755,-231,583,-13397
4.627380,-272,503,-13185
4.643005,-290,466,-13065
4.658630,-286,428,-12972
4.674255,-322,416,-12947
4.689880,-342,512,-13163
4.705505,-340,549,-13306
4.721130,-367,549,-13372
4.736755,-347,592,-13340
4.752380,-338,503,-13090
4.768005,-331,421,-12992
4.783630,-297,455,-12979
4.799255,-288,433,-13017
4.814880,-213,491,-13304
4.830505,-174,564,-13415
4.846130,-233,514,-13328
4.861755,-267,521,-13320
4.877380,-317,457,-13111
4.893005,-383,355,-12935
4.908630,-399,455,-13063
4.924255,-388,501,-13128
4.939880,-338,535,-13220
4.955505,-293,644,-13378
4.971130,-300,605,-13304
4.986755,-308,549,-13151
5.002380,-333,557,-13029
5.018005,-347,512,-12965
5.033630,-313,498,-13038
5.049255,-331,524,-13158
5.064880,-347,558,-13281
5.080505,-317,573,-13301
5.096130,-317,494,-13190
5.111755,-313,449,-13094
5.127380,-329,437,-12970
5.143005,-336,401,-12958
5.158630,-290,474,-13133
5.174255,-297,573,-13226
5.189880,-309,617,-13292
5.205505,-279,646,-13310
5.221130,-309,544,-13136
5.236755,-333,478,-13031
5.252380,-331,491,-12997
5.268005,-334,421,-12995
5.283630,-256,423,-13211
5.299255,-186,444,-13310
5.314880,-192,410,-13254
5.330505,-195,474,-13281
5.346130,-218,442,-13128
5.361755,-229,344,-13003
5.377380,-195,394,-13126
5.393005,-190,405,-13142
5.408630,-213,442,-13210
5.424255,-206,541,-13367
5.439880,-213,494,-13261
5.455505,-254,432,-13145
5.471130,-267,421,-13117
5.486755,-277,374,-13010
5.502380,-270,403,-13045
5.518005,-233,457,-13188
5.533630,-224,473,-13258
5.549255,-213,523,-13301
5.564880,-204,492,-13242
5.580505,-224,432,-13133
5.596130,-242,437,-13065
5.611755,-267,432,-13013
5.627380,-258,446,-13113
5.643005,-234,467,-13269
5.658630,-265,464,-13279
5.674255,-274,485,-13242
5.689880,-261,476,-13181
5.705505,-283,442,-13065
5.721130,-275,424,-13031
5.736755,-265,453,-13090
5.752380,-267,517,-13169
5.768005,-247,532,-13247
5.783630,-254,514,-13283
5.799255,-274,501,-13211
5.814880,-297,464,-13085
5.830505,-318,432,-13035
5.846130,-308,446,-13065
5.861755,-308,460,-13124
5.877380,-295,496,-13215
5.893005,-252,544,-13272
5.908630,-265,546,-13229
5.924255,-295,519,-13167
5.939880,-299,503,-13103
5.955505,-324,487,-13042
5.971130,-334,467,-13086
5.986755,-313,485,-13188
6.002380,-317,514,-13253
6.018005,-315,532,-13261
6.033630,-308,517,-13213
6.049255,-306,485,-13122
6.064880,-309,467,-13044
6.080505,-342,471,-13033
6.096130,-345,514,-13115
6.111755,-345,578,-13186
6.127380,-377,605,-13215
6.143005,-340,589,-13233
6.158630,-324,549,-13165
6.174255,-381,521,-13078
6.189880,-342,487,-13090
6.205505,-263,423,-13133
6.221130,-234,412,-13190
6.236755,-242,480,-13235
6.252380,-277,541,-13228
6.268005,-290,544,-13219
6.283630,-313,526,-13136
6.299255,-343,507,-13076
6.314880,-293,458,-13128
6.330505,-242,396,-13147
6.346130,-218,414,-13226
6.361755,-206,483,-13283
6.377380,-234,473,-13192
6.393005,-245,441,-13179
6.408630,-263,473,-13144
6.424255,-345,476,-13024
6.439880,-356,483,-13097
6.455505,-263,474,-13217
6.471130,-211,414,-13226
6.486755,-213,462,-13254
6.502380,-243,507,-13201
6.518005,-268,466,-13117
6.533630,-234,442,-13119
6.549255,-240,419,-13094
6.564880,-277,430,-13111
6.580505,-256,483,-13186
6.596130,-263,485,-13224
6.611755,-284,487,-13236
6.627380,-261,487,-13181
6.643005,-250,432,-13086
6.658630,-245,424,-13078
6.674255,-238,442,-13120
6.689880,-222,455,-13151
6.705505,-204,482,-13211
6.721130,-220,494,-13240
6.736755,-252,471,-13199
6.752380,-267,455,-13128
6.768005,-261,444,-13101
6.783630,-254,432,-13110
6.799255,-267,449,-13129
6.814880,-284,473,-13181
6.830505,-268,496,-13219
6.846130,-263,483,-13211
6.861755,-249,471,-13160
6.877380,-227,451,-13094
6.893005,-240,383,-13069
6.908630,-265,435,-13129
6.924255,-259,551,-13165
6.939880,-242,533,-13185
6.955505,-304,530,-13247
6.971130,-325,564,-13192
6.986755,-272,485,-13095
7.002380,-274,453,-13079
7.018005,-265,449,-13085
7.033630,-242,430,-13153
7.049255,-265,478,-13222
7.064880,-293,503,-13211
7.080505,-300,508,-13213
7.096130,-317,505,-13151
7.111755,-340,473,-13060
7.127502,-322,474,-13111
7.143127,-306,464,-13158
7.158752,-297,462,-13178
7.174377,-283,508,-13228
7.190002,-338,523,-13194
7.205627,-397,524,-13140
7.221252,-347,473,-13142
7.236877,-315,396,-13140
7.252502,-374,476,-13113
7.268127,-388,571,-13099
7.283752,-295,528,-13206
7.299377,-217,526,-13272
7.315002,-229,517,-13174
7.330627,-231,505,-13145
7.346252,-245,505,-13136
7.361877,-324,460,-13045
7.377502,-347,462,-13126
7.393127,-324,442,-13224
7.408752,-327,401,-13204
7.424377,-315,446,-13233
7.440002,-329,508,-13163
7.455627,-363,548,-13081
7.471252,-311,605,-13106
7.486877,-272,605,-13115
7.502502,-270,596,-13167
7.518127,-222,566,-13235
7.533752,-211,467,-13206
7.549377,-295,448,-13165
7.565002,-349,414,-13119
7.580627,-318,312,-13094
7.596252,-302,342,-13113
7.611877,-354,453,-13120
7.627502,-383,566,-13170
7.643127,-309,623,-13258
7.658752,-234,580,-13235
7.674377,-242,573,-13145
7.690002,-225,558,-13129
7.705627,-154,437,-13136
7.721252,-134,358,-13165
7.736877,-184,392,-13194
7.752502,-279,423,-13163
7.768127,-324,430,-13183
7.783752,-293,396,-13199
7.799377,-308,394,-13101
7.815002,-317,453,-13079
7.830627,-258,476,-13138
7.846252,-204,489,-13163
7.861877,-183,537,-13219
7.877502,-168,544,-13247
7.893127,-165,480,-13220
7.908752,-190,433,-13169
7.924377,-238,424,-13092
7.940002,-311,424,-13070
7.955627,-374,417,-13106
7.971252,-390,435,-13158
7.986877,-363,482,-13215
8.002502,-343,480,-13206
8.018127,-333,469,-13178
8.033752,-267,462,-13147
8.049377,-204,444,-13086
8.065002,-183,457,-13119
8.080627,-167,469,-13192
8.096252,-177,457,-13199
8.111877,-225,483,-13231
8.127380,-297,487,-13203
8.143005,-352,433,-13104
8.158630,-375,453,-13106
8.174255,-379,467,-13103
8.189880,-345,460,-13122
8.205505,-277,496,-13233
8.221130,-243,494,-13222
8.236755,-225,480,-13185
8.252380,-197,485,-13190
8.268005,-208,449,-13104
8.283630,-261,457,-13104
8.299255,-270,510,-13149
8.314880,-300,494,-13135
8.330505,-392,519,-13210
8.346130,-384,537,-13222
8.361755,-365,467,-13154
8.377380,-358,455,-13126
8.393005,-309,460,-13094
8.408630,-274,430,-13119
8.424255,-233,449,-13158
8.439880,-250,524,-13183
8.455505,-233,530,-13247
8.471130,-231,501,-13224
8.486755,-352,553,-13136
8.502380,-379,524,-13126
8.518005,-340,457,-13106
8.533630,-315,439,-13120
8.549255,-272,439,-13169
8.564880,-304,517,-13174
8.580505,-284,510,-13222
8.596130,-213,408,-13199
8.611755,-281,455,-13106
8.627380,-331,507,-13103
8.643005,-249,421,-13113
8.658630,-270,474,-13124
8.674255,-333,569,-13199
8.689880,-268,494,-13229
8.705505,-306,516,-13195
8.721130,-381,555,-13151
8.736755,-268,416,-13111
8.752380,-229,392,-13092
8.768005,-284,448,-13094
8.783630,-247,417,-13140
8.799255,-259,507,-13206
8.814880,-284,533,-13228
8.830505,-245,458,-13194
8.846130,-317,546,-13142
8.861755,-349,523,-13103
8.877380,-281,439,-13108
8.893005,-279,508,-13161
8.908630,-254,478,-13185
8.924255,-242,471,-13201
8.939880,-249,499,-13219
8.955505,-192,376,-13138
8.971130,-227,399,-13081
8.986755,-292,466,-13092
9.002380,-259,387,-13090
9.018005,-290,467,-13174
9.033630,-325,533,-13231
9.049255,-300,499,-13197
9.064880,-295,535,-13213
9.080505,-290,508,-13142
9.096130,-281,453,-13065
9.111755,-242,451,-13108
9.127380,-200,448,-13126
9.143005,-199,441,-13179
9.158630,-229,457,-13219
9.174255,-279,466,-13186
9.189880,-304,467,-13170
9.205505,-322,466,-13099
9.221130,-350,462,-13085
9.236755,-322,498,-13167
9.252380,-277,517,-13160
9.268005,-249,492,-13208
9.283630,-199,498,-13278
9.299255,-211,455,-13153
9.314880,-245,416,-13101
9.330505,-263,457,-13147
9.346130,-315,426,-13067
9.361755,-333,457,-13140
9.377380,-317,537,-13267
9.393005,-317,489,-13086
9.408630,-306,519,-13263
9.424255,-281,564,-13328
9.439880,-338,401,-12897
9.455505,-309,457,-13185
9.471130,-227,555,-13247
9.486755,-311,358,-12904
9.502380,-265,532,-13311
9.518005,-233,624,-13299
9.533630,-324,423,-12994
9.549255,-263,573,-13336
9.564880,-281,542,-13203
9.580505,-377,344,-12922
9.596130,-295,485,-13253
9.611755,-288,455,-13120
9.627380,-352,360,-12999
9.643005,-267,526,-13347
9.658630,-268,480,-13188
9.674255,-274,432,-13078
9.689880,-229,557,-13260
9.705505,-336,573,-13074
9.721130,-336,541,-13065
9.736755,-238,521,-13281
9.752380,-313,512,-13169
9.768005,-367,501,-13111
9.783630,-292,453,-13274
9.799255,-267,369,-13163
9.814880,-338,383,-13019
9.830505,-336,464,-13154
9.846130,-256,426,-13161
9.861755,-286,467,-13108
9.877380,-292,591,-13254
9.893005,-213,532,-13228
9.908630,-238,480,-13111
9.924255,-299,583,-13181
9.939880,-281,485,-13115
9.955505,-252,360,-13090
9.971130,-281,498,-13201
9.986755,-293,410,-13138
10.002380,-270,355,-13165
10.018005,-292,517,-13195
10.033630,-274,432,-13086
10.049255,-247,489,-13151
10.064880,-315,648,-13165
10.080505,-304,519,-13149
10.096130,-252,496,-13229
10.111755,-313,523,-13163
10.127380,-279,424,-13149
10.143005,-206,369,-13161
10.158630,-209,292,-13104
10.174255,-193,362,-13140
10.189880,-249,494,-13138
10.205505,-261,473,-13172
10.221130,-233,560,-13222
10.236755,-356,637,-13138
10.252380,-381,548,-13181
10.268005,-288,474,-13197
10.283630,-300,414,-13086
10.299255,-274,405,-13144
10.314880,-234,392,-13158
10.330505,-222,374,-13129
10.346130,-165,453,-13213
10.361755,-202,444,-13186
10.377380,-270,441,-13144
10.393005,-265,501,-13158
10.408630,-277,478,-13133
10.424255,-286,496,-13153
10.439880,-286,521,-13185
10.455505,-302,503,-13183
10.471130,-293,503,-13190
10.486755,-300,458,-13160
10.502380,-325,412,-13135
10.518005,-304,405,-13147
10.533630,-286,401,-13099
10.549255,-288,448,-13117
10.564880,-275,528,-13188
10.580505,-258,530,-13190
10.596130,-240,519,-13220
10.611755,-263,541,-13199
10.627380,-295,517,-13088
10.643005,-297,460,-13111
10.658630,-315,437,-13119
10.674255,-342,428,-13133
10.689880,-318,474,-13222
10.705505,-309,471,-13158
10.721130,-308,433,-13154
10.736755,-256,508,-13170
10.752380,-272,491,-13081
10.768005,-274,482,-13169
10.783630,-254,508,-13195
10.799255,-309,469,-13117
10.814880,-302,541,-13244
10.830505,-283,535,-13197
10.846130,-309,449,-13090
10.861755,-284,494,-13181
10.877380,-302,439,-13126
10.893005,-329,414,-13131
10.908630,-281,485,-13208
10.924255,-270,442,-13126
10.939880,-286,512,-13174
10.955505,-274,523,-13192
10.971130,-277,462,-13097
10.986755,-263,537,-13165
11.002380,-268,489,-13145
11.018005,-299,448,-13128
11.033630,-300,533,-13206
11.049255,-300,483,-13144
11.064880,-267,410,-13149
11.080505,-308,494,-13181
11.096130,-327,457,-13115
11.111755,-243,374,-13135
11.127380,-286,480,-13147
11.143005,-317,503,-13129
11.158630,-213,424,-13217
11.174255,-217,473,-13201
11.189880,-300,533,-13144
11.205505,-249,478,-13206
11.221130,-245,467,-13165
11.236755,-306,471,-13160
11.252380,-263,439,-13224
11.268005,-270,437,-13172
11.283630,-279,498,-13144
11.299255,-231,665,-13072
11.314880,-175,657,-13054
11.330505,-136,632,-13220
11.346130,-184,655,-13254
11.361755,-249,462,-13186
11.377380,-299,435,-13186
11.393005,-349,426,-13044
11.408630,-363,274,-12986
11.424255,-388,258,-13192
11.439880,-404,292,-13220
11.455505,-383,292,-13220
11.471130,-334,373,-13235
11.486755,-318,399,-13110
11.502380,-261,458,-13069
11.518005,-181,566,-13079
11.533630,-179,610,-13086
11.549255,-167,726,-13254
11.564880,-181,726,-13315
11.580505,-236,655,-13181
11.596130,-284,607,-13217
11.611755,-318,483,-13111
11.627380,-365,312,-12976
11.643005,-347,271,-13138
11.658630,-315,266,-13161
11.674255,-327,301,-13111
11.689880,-247,373,-13306
11.705505,-343,524,-13176
11.721130,-193,535,-13078
11.736755,-208,408,-13242
11.752380,-658,1151,-12888
11.768005,1292,51,-13499
11.783630,3247,-1320,-13869
11.799255,3179,-315,-13577
11.814880,4453,-1265,-14536
11.830505,5608,-2509,-14152
11.846130,4892,-2998,-11872
11.861755,4940,-3402,-7957
11.877380,3490,-1800,-5978
11.893005,457,142,-9569
11.908630,749,2412,-13944
11.924255,740,4913,-15995
11.939880,853,5306,-16872
11.955505,2212,4095,-16077
11.971130,1105,2767,-13935
11.986755,914,2003,-12579
12.002380,1997,1298,-9432
12.018005,-177,674,-7862
12.033630,-1086,1299,-11510
12.049255,558,2658,-13801
12.064880,-43,2760,-14327
12.080505,665,2497,-15415
12.096130,2303,2576,-15420
12.111755,1819,1972,-13469
12.127380,1365,1669,-12169
12.143005,1323,1937,-12701
12.158630,644,2214,-12558
12.174255,-83,2217,-12213
12.189880,287,2072,-12851
12.205505,958,1869,-13165
12.221130,1139,1615,-12979
12.236755,1444,1683,-13874
12.252380,1576,1985,-14495
12.268005,887,2155,-13397
12.283630,516,2047,-12828
12.299255,596,1862,-12547
12.314880,321,1781,-11737
12.330505,699,1599,-12822
12.346130,1356,1517,-14004
12.361755,1255,1673,-13517
12.377380,1373,1503,-13985
12.393005,1392,1358,-13685
12.408630,683,1639,-12153
12.424255,485,1640,-12587
12.439880,555,1680,-13085
12.455505,526,1837,-12897
12.471130,903,1565,-13810
12.486755,1073,1426,-13694
12.502380,1014,1328,-12874
12.518005,1010,1035,-13053
12.533630,842,1110,-12767
12.549255,683,1315,-12806
12.564880,658,1423,-13544
12.580505,778,1435,-13503
12.596130,833,1215,-13265
12.611755,708,1092,-13140
12.627380,673,1049,-12960
12.643005,653,1087,-12754
12.658630,683,1294,-12849
12.674255,760,1274,-13622
12.689880,771,1187,-13617
12.705505,744,1203,-13145
12.721130,560,1012,-13340
12.736755,421,919,-12837
12.752380,391,965,-12558
12.768005,392,851,-13267
12.783630,619,899,-13215
12.799255,710,1030,-13279
12.814880,567,969,-13667
12.830505,555,971,-13206
12.846130,392,928,-13006
12.861755,266,787,-12985
12.877380,387,787,-12749
12.893005,351,833,-13063
12.908630,417,912,-13345
12.924255,505,1019,-13456
12.939880,342,964,-13519
12.955505,337,778,-13219
12.971130,273,660,-12983
12.986755,74,664,-12845
13.002380,124,680,-12917
13.018005,158,733,-13263
13.033630,226,844,-13308
13.049255,383,832,-13315
13.064880,292,794,-13324
13.080505,201,823,-13095
13.096130,144,767,-13158
13.111755,-77,739,-13133
13.127533,-67,715,-12863
13.143158,112,594,-13053
13.158783,82,657,-13208
13.174408,76,805,-13253
13.190033,119,757,-13492
13.205658,35,758,-13224
13.221283,-95,773,-12917
13.236908,-108,648,-13070
13.252533,-18,673,-12949
13.268158,-72,817,-13097
13.283783,-56,776,-13610
13.299408,108,724,-13276
13.315033,-52,810,-12970
13.330658,-240,719,-13245
13.346283,-158,607,-13019
13.361908,-318,748,-12942
13.377533,-447,757,-13310
13.393158,-156,624,-13176
13.408783,-25,608,-13028
13.424408,-186,657,-13253
13.440033,-192,690,-13253
13.455658,0,614,-13119
13.471283,-86,669,-13151
13.486908,-293,846,-13126
13.502533,-127,730,-13031
13.518158,21,723,-13178
13.533783,-267,892,-13278
13.549408,-379,835,-13195
13.565033,67,948,-13192
13.580658,-774,419,-12990
13.596283,-199,1008,-13254
13.611908,624,2921,-12883
13.627533,-3602,1869,-11106
13.643158,-4752,1812,-11497
13.658783,-3757,2692,-11812
13.674408,-4359,519,-9557
13.690033,-2947,80,-10156
13.705658,-1868,637,-13094
13.721283,-640,523,-14817
13.736908,83,1162,-15693
13.752533,-240,796,-14763
13.768158,-442,216,-13092
13.783783,-1208,617,-12747
13.799408,-2156,405,-11824
13.815033,-1325,-302,-10639
13.830658,-384,-92,-12353
13.846283,-640,166,-14224
13.861908,124,483,-14606
13.877533,264,865,-15058
13.893158,-377,412,-13906
13.908783,-442,-2,-12262
13.924408,-795,-93,-11644
13.940033,-754,-145,-11854
13.955658,-515,199,-13247
13.971283,-386,508,-14256
13.986908,-147,453,-14277
14.002533,-225,351,-13747
14.018158,-302,-8,-12599
14.033783,-393,-261,-12081
14.049408,-513,-127,-12503
14.065033,-374,44,-13206
14.080658,-299,287,-14031
14.096283,-259,351,-13965
14.111908,-218,148,-13186
14.127380,-399,14,-12660
14.143005,-449,-75,-12363
14.158630,-397,30,-12853
14.174255,-450,283,-13688
14.189880,-309,251,-13790
14.205505,-183,57,-13576
14.221130,-229,-92,-12985
14.236755,-227,-188,-12363
14.252380,-336,-38,-12687
14.268005,-413,201,-13313
14.283630,-343,310,-13706
14.299255,-370,310,-13772
14.314880,-313,83,-13201
14.330505,-304,-95,-12526
14.346130,-267,-190,-12601
14.361755,-206,-113,-13231
14.377380,-320,246,-13458
14.393005,-268,362,-13490
14.408630,-406,387,-13574
14.424255,-509,216,-12999
14.439880,-418,-88,-12585
14.455505,-509,-95,-12979
14.471130,-433,-58,-13229
14.486755,-331,57,-13415
14.502380,-374,235,-13515
14.518005,-333,214,-13163
14.533630,-208,80,-12894
14.549255,-242,87,-12936
14.564880,-338,157,-13149
14.580505,-336,158,-13347
14.596130,-484,248,-13392
14.611755,-706,341,-13206
14.627380,-709,237,-12967
14.643005,-693,180,-12986
14.658630,-593,148,-13131
14.674255,-409,110,-13244
14.689880,-356,158,-13381
14.705505,-275,94,-13228
14.721130,-320,128,-12978
14.736755,-465,253,-13029
14.752380,-520,274,-13076
14.768005,-597,349,-13258
14.783630,-620,333,-13415
14.799255,-633,239,-13154
14.814880,-677,207,-13026
14.830505,-624,148,-12994
14.846130,-600,214,-12953
14.861755,-577,358,-13245
14.877380,-452,335,-13420
14.893005,-411,276,-13303
14.908630,-456,241,-13128
14.924255,-447,110,-12954
14.939880,-475,67,-12995
14.955505,-638,226,-13145
14.971130,-670,298,-13295
14.986755,-656,351,-13383
15.002380,-713,399,-13186
15.018005,-616,266,-13010
15.033630,-499,182,-13042
15.049255,-459,201,-13078
15.064880,-440,228,-13240
15.080505,-465,242,-13360
15.096130,-488,192,-13210
15.111755,-522,167,-13076
15.127380,-543,169,-13026
15.143005,-502,149,-13049
15.158630,-492,192,-13206
15.174255,-524,257,-13308
15.189880,-542,278,-13253
15.205505,-554,280,-13133
15.221130,-534,235,-13045
15.236755,-479,191,-13076
15.252380,-402,182,-13170
15.268005,-367,158,-13256
15.283630,-374,135,-13261
15.299255,-404,123,-13131
15.314880,-500,133,-13070
15.330505,-534,153,-13106
15.346130,-481,169,-13151
15.361755,-454,210,-13254
15.377380,-408,217,-13229
15.393005,-370,162,-13129
15.408630,-390,137,-13133
15.424255,-400,149,-13053
15.439880,-397,144,-13108
15.455505,-397,132,-13356
15.471130,-367,91,-13192
15.486755,-368,48,-13103
15.502380,-438,92,-13197
15.518005,-392,67,-12933
15.533630,-384,108,-13126
15.549255,-461,253,-13403
15.564880,-347,194,-13138
15.580505,-354,207,-13220
15.596130,-406,207,-13188
15.611755,-302,67,-12906
15.627380,-377,116,-13201
15.643005,-409,99,-13274
15.658630,-358,33,-13142
15.674255,-440,116,-13292
15.689880,-413,78,-13090
15.705505,-363,57,-12988
15.721130,-409,157,-13190
15.736755,-386,199,-13176
15.752380,-395,249,-13226
15.768005,-445,262,-13267
15.783630,-449,201,-13104
15.799255,-443,149,-13058
15.814880,-442,119,-13120
15.830505,-424,101,-13163
15.846130,-427,103,-13211
15.861755,-454,141,-13226
15.877380,-459,162,-13147
15.893005,-447,151,-13078
15.908630,-447,169,-13120
15.924255,-447,223,-13190
15.939880,-442,251,-13245
15.955505,-467,257,-13226
15.971130,-515,248,-13149
15.986755,-549,207,-13099
16.002380,-533,167,-13079
16.018005,-492,144,-13170
16.033630,-454,130,-13249
16.049255,-454,153,-13190
16.064880,-508,199,-13176
16.080505,-506,221,-13133
16.096130,-499,237,-13078
16.111755,-534,255,-13174
16.127502,-525,266,-13226
16.143127,-497,248,-13210
16.158752,-488,216,-13199
16.174377,-497,194,-13108
16.190002,-533,183,-13086
16.205627,-540,182,-13158
16.221252,-520,192,-13188
16.236877,-531,224,-13224
16.252502,-524,226,-13183
16.268127,-504,198,-13094
16.283752,-524,217,-13095
16.299377,-533,249,-13145
16.315002,-518,274,-13208
16.330627,-518,269,-13233
16.346252,-515,223,-13186
16.361877,-506,191,-13122
16.377502,-504,171,-13088
16.393127,-499,160,-13126
16.408752,-483,164,-13190
16.424377,-470,194,-13204
16.440002,-475,203,-13197
16.455627,-479,187,-13149
16.471252,-461,176,-13078
16.486877,-450,187,-13124
16.502502,-477,223,-13190
16.518127,-481,205,-13194
16.533752,-470,194,-13213
16.549377,-456,189,-13142
16.565002,-431,126,-13083
16.580627,-434,117,-13145
16.596252,-411,132,-13138
16.611877,-388,148,-13181
16.627502,-418,182,-13245
16.643127,-418,160,-13145
16.658752,-433,149,-13135
16.674377,-450,167,-13160
16.690002,-417,157,-13104
16.705627,-411,167,-13195
16.721252,-415,149,-13226
16.736877,-404,116,-13136
16.752502,-424,139,-13163
16.768127,-402,101,-13144
16.783752,-368,80,-13129
16.799377,-418,153,-13208
16.815002,-390,130,-13190
16.830627,-370,141,-13147
16.846252,-431,182,-13163
16.861877,-406,132,-13136
16.877502,-431,196,-13136
16.893127,-438,196,-13194
16.908752,-400,141,-13178
16.924377,-420,164,-13161
16.940002,-409,132,-13144
16.955627,-413,130,-13119
16.971252,-433,149,-13144
16.986877,-427,139,-13185
17.002502,-415,139,-13203
17.018127,-404,158,-13158
17.033752,-372,130,-13156
17.049377,-411,139,-13147
17.065002,-467,182,-13117
17.080627,-461,185,-13195
17.096252,-500,199,-13242
17.111877,-488,167,-13169
17.127380,-493,180,-13140
17.143005,-497,174,-13169
17.158630,-408,110,-13153
17.174255,-440,180,-13176
17.189880,-483,230,-13210
17.205505,-458,198,-13178
17.221130,-504,208,-13170
17.236755,-499,166,-13136
17.252380,-495,157,-13108
17.268005,-508,182,-13174
17.283630,-502,191,-13179
17.299255,-518,216,-13188
17.314880,-508,210,-13176
17.330505,-492,189,-13124
17.346130,-490,199,-13149
17.361755,-499,228,-13147
17.377380,-467,198,-13185
17.393005,-477,223,-13235
17.408630,-500,232,-13160
17.424255,-502,191,-13128
17.439880,-529,223,-13145
17.455505,-500,199,-13120
17.471130,-502,166,-13203
17.486755,-513,191,-13220
17.502380,-474,169,-13104
17.518005,-502,164,-13172
17.533630,-517,192,-13195
17.549255,-483,194,-13108
17.564880,-504,224,-13197
17.580505,-499,230,-13178
17.596130,-477,185,-13108
17.611755,-525,183,-13215
17.627380,-536,182,-13169
17.643005,-492,176,-13122
17.658630,-484,180,-13228
17.674255,-481,162,-13158
17.689880,-454,164,-13120
17.705505,-445,201,-13192
17.721130,-427,207,-13104
17.736755,-420,208,-13099
17.752380,-433,257,-13217
17.768005,-413,233,-13181
17.783630,-400,155,-13153
17.799255,-440,123,-13185
17.814880,-450,110,-13111
17.830505,-454,108,-13097
17.846130,-492,162,-13170
17.861755,-467,214,-13197
17.877380,-433,216,-13215
17.893005,-408,174,-13190
17.908630,-375,132,-13111
17.924255,-395,121,-13111
17.939880,-417,139,-13124
17.955505,-413,144,-13149
17.971130,-454,173,-13211
17.986755,-488,187,-13186
18.002380,-459,148,-13133
18.018005,-450,146,-13106
18.033630,-402,121,-13129
18.049255,-400,164,-13176
18.064880,-406,205,-13178
18.080505,-408,192,-13203
18.096130,-438,198,-13186
18.111755,-425,167,-13099
18.127380,-438,149,-13154
18.143005,-424,132,-13179
18.158630,-417,137,-13154
18.174255,-449,160,-13219
18.189880,-467,180,-13149
18.205505,-481,205,-13115
18.221130,-499,230,-13181
18.236755,-468,226,-13153
18.252380,-445,216,-13190
18.268005,-424,174,-13224
18.283630,-404,108,-13119
18.299255,-472,144,-13126
18.314880,-488,166,-13133
18.330505,-458,153,-13119
18.346130,-479,194,-13220
18.361755,-452,180,-13197
18.377380,-427,167,-13144
18.393005,-467,196,-13153
18.408630,-465,178,-13117
18.424255,-474,210,-13169
18.439880,-515,269,-13219
18.455505,-506,253,-13176
18.471130,-524,237,-13183
18.486755,-524,203,-13133
18.502380,-470,153,-13088
18.518005,-483,155,-13176
18.533630,-458,153,-13179
18.549255,-411,162,-13201
18.564880,-467,214,-13249
18.580505,-490,199,-13117
18.596130,-513,192,-13113
18.611755,-550,216,-13183
18.627380,-511,207,-13138
18.643005,-499,260,-13236
18.658630,-504,321,-13235
18.674255,-486,323,-13094
18.689880,-511,324,-13174
18.705505,-477,280,-13172
18.721130,-384,207,-13072
18.736755,-415,151,-13206
18.752380,-474,73,-13217
18.768005,-479,-8,-13104
18.783630,-549,21,-13145
18.799255,-583,94,-13122
18.814880,-542,169,-13120
18.830505,-518,271,-13210
18.846130,-470,292,-13222
18.861755,-438,282,-13178
18.877380,-449,258,-13113
18.893005,-438,199,-13113
18.908630,-413,176,-13138
18.924255,-436,166,-13165
18.939880,-472,135,-13258
18.955505,-465,87,-13188
18.971130,-447,55,-13076
18.986755,-463,69,-13115
19.002380,-450,103,-13099
19.018005,-424,182,-13170
19.033630,-461,278,-13283
19.049255,-443,298,-13201
19.064880,-434,266,-13169
19.080505,-461,207,-13145
19.096130,-417,132,-13074
19.111755,-418,107,-13156
19.127502,-452,110,-13194
19.143127,-442,103,-13163
19.158752,-461,110,-13197
19.174377,-450,119,-13131
19.190002,-420,137,-13086
19.205627,-431,189,-13183
19.221252,-404,221,-13190
19.236877,-409,242,-13178
19.252502,-461,249,-13203
19.268127,-465,198,-13126
19.283752,-470,153,-13120
19.299377,-477,141,-13178
19.315002,-436,99,-13156
19.330627,-429,98,-13181
19.346252,-447,130,-13172
19.361877,-442,128,-13092
19.377502,-479,185,-13138
19.393127,-454,219,-13194
19.408752,-400,192,-13195
19.424377,-458,235,-13224
19.440002,-458,221,-13153
19.455627,-449,183,-13122
19.471252,-495,173,-13154
19.486877,-474,137,-13120
19.502502,-472,149,-13199
19.518127,-490,155,-13224
19.533752,-443,128,-13138
19.549377,-465,164,-13151
19.565002,-468,182,-13119
19.580627,-438,201,-13113
19.596252,-497,262,-13206
19.611877,-511,255,-13178
19.627502,-497,239,-13176
19.643127,-517,221,-13170
19.658752,-497,153,-13086
19.674377,-483,119,-13138
19.690002,-481,149,-13172
19.705627,-470,174,-13178
19.721252,-463,192,-13158
19.736877,-465,192,-12976
19.752502,-590,244,-12981
19.768127,-554,226,-13208
19.783752,-265,114,-13345
19.799377,-170,128,-13401
19.815002,-220,126,-13319
19.830627,-322,99,-13236
19.846252,-479,212,-13131
19.861877,-502,191,-12963
19.877502,-615,198,-13106
19.893127,-691,591,-13031
19.908752,-658,608,-12769
19.924377,-836,417,-13217
19.940002,-570,399,-13592
19.955627,-408,237,-13199
19.971252,-802,266,-12965
19.986877,-624,205,-13060
20.002502,-372,124,-13088
20.018127,-493,219,-13258
20.033752,-508,207,-13310
20.049377,-418,130,-13176
20.065002,-293,49,-13138
20.080627,-172,5,-13111
20.096252,-93,-50,-13045
20.111877,-167,-11,-13058
20.127380,-331,105,-13113
20.143005,-454,167,-13236
20.158630,-447,326,-13363
20.174255,-345,317,-13219
20.189880,-329,74,-13028
20.205505,-379,73,-13072
20.221130,-422,167,-13233
20.236755,-481,199,-13326
20.252380,-486,203,-13194
20.268005,-399,110,-13004
20.283630,-338,60,-13053
20.299255,-358,123,-13176
20.314880,-381,199,-13222
20.330505,-409,239,-13267
20.346130,-509,285,-13256
20.361755,-581,296,-13170
20.377380,-563,235,-13110
20.393005,-604,237,-13065
20.408630,-666,285,-13090
20.424255,-661,321,-13217
20.439880,-654,371,-13247
20.455505,-654,389,-13169
20.471130,-658,333,-13086
20.486755,-593,260,-13078
20.502380,-520,249,-13140
20.518005,-520,241,-13151
20.533630,-508,224,-13158
20.549255,-500,251,-13181
20.564880,-518,267,-13163
20.580505,-492,248,-13156
20.596130,-445,241,-13178
20.611755,-456,264,-13176
20.627380,-504,276,-13174
20.643005,-493,221,-13169
20.658630,-459,214,-13078
20.674255,-500,310,-13110
20.689880,-525,282,-13254
20.705505,-479,207,-13208
20.721130,-479,224,-13131
20.736755,-533,260,-13151
20.752380,-575,289,-13142
20.768005,-574,237,-13051
20.783630,-531,212,-13047
20.799255,-568,271,-13183
20.814880,-608,294,-13190
20.830505,-488,280,-13236
20.846130,-368,246,-13349
20.861755,-383,223,-13206
20.877380,-511,266,-13111
20.893005,-577,305,-13188
20.908630,-538,273,-13169
20.924255,-520,248,-13156
20.939880,-547,246,-13163
20.955505,-583,241,-13110
20.971130,-583,255,-13092
20.986755,-574,278,-13144
21.002380,-579,292,-13133
21.018005,-588,276,-13036
21.033630,-624,267,-13058
21.049255,-686,330,-13201
21.064880,-640,364,-13281
21.080505,-468,292,-13231
21.096130,-417,219,-13156
21.111755,-515,244,-13181
21.127380,-547,346,-13299
21.143005,-650,373,-13408
21.158630,-459,251,-13220
21.174255,-513,217,-12979
21.189880,-1681,324,-13158
21.205505,-1543,316,-13194
21.221130,-365,223,-13160
21.236755,-361,203,-13399
21.252380,-481,214,-13367
21.268005,-438,212,-13272
21.283630,-520,203,-13329
21.299255,-558,189,-13206
21.314880,-627,183,-13040
21.330505,-645,158,-12953
21.346130,-616,117,-12887
21.361755,-608,114,-12931
21.377380,-590,135,-13113
21.393005,-583,191,-13322
21.408630,-579,217,-13385
21.424255,-597,203,-13290
21.439880,-666,182,-13126
21.455505,-711,142,-12983
21.471130,-709,132,-12990
21.486755,-693,146,-13131
21.502380,-668,160,-13219
21.518005,-631,160,-13222
21.533630,-586,123,-13186
21.549255,-574,92,-13117
21.564880,-595,114,-13063
21.580505,-602,117,-13045
21.596130,-613,117,-13044
21.611755,-649,144,-13092
; 21 stopping logging: shutdown: switched off
