;Title, http://www.gcdataconcepts.com, x2-2,Kionix KXRB5-2050
;Version, 1102, Build date, Oct  6 2015,  SN:CCDC10023F56AE8
;Start_time, 2007-01-05, 20:16:12.761
;Temperature, -999.00, deg C,  Vbat, 4126, mv
;Gain, high
;SampleRate, 64,Hz
;Deadband, 0, counts
;DeadbandTimeout, 0,sec
;Headers, time,Ax,Ay,Az
0.382599,-125,-181,-13310
0.398224,-199,-159,-13204
0.413849,-315,-183,-13086
0.429474,-299,-213,-12988
0.445099,-184,-233,-13028
0.460724,-129,-218,-13233
0.476349,-24,-167,-13342
0.507599,-61,-138,-13378
0.523224,-190,-140,-13179
0.538849,-211,-165,-12904
0.554474,-297,-186,-13040
0.570099,-254,-175,-13183
0.585724,-84,-170,-13203
0.601349,-92,-174,-13347
0.616974,-97,-233,-13215
0.632599,-97,-225,-13020
0.648224,-217,-181,-13186
0.663849,-322,-311,-13169
0.679474,-95,62,-13042
0.695099,-167,-295,-13313
0.710724,-1782,-608,-13001
0.726349,-4978,2240,-13042
0.741974,-7394,4567,-14088
0.757599,-6448,3979,-13788
0.773224,-2864,2349,-12828
0.788849,-343,1037,-11501
0.804474,83,689,-11533
0.820099,1187,74,-13122
0.835724,2742,-84,-13092
0.851349,2528,630,-14567
0.866974,1169,751,-16281
0.882599,474,814,-14268
0.898224,-292,917,-12081
0.913849,-799,251,-11188
0.929474,-197,-156,-10515
0.945099,355,57,-11401
0.960724,1205,269,-13842
0.976349,1692,787,-15490
0.991974,1212,1348,-15458
1.007599,1708,753,-14877
1.023224,212,1069,-11271
1.038849,-2738,2597,-8219
1.054474,1803,239,-10726
1.070099,6870,-2716,-11313
1.085724,3028,-2066,-9392
1.101349,1560,-718,-10180
1.116974,4388,-86,-12931
1.132599,3644,-1549,-15790
1.148224,2264,-1884,-15059
1.163849,2308,-186,-11821
1.179474,2278,191,-12203
1.195099,1073,-359,-13488
1.210724,280,-1038,-11124
1.226349,1119,-1225,-9949
1.241974,1510,-1506,-12356
1.257599,1660,-1336,-13469
1.273224,2071,-356,-13438
1.288849,1771,-18,-15420
1.304474,1253,-304,-15163
1.320099,1290,-297,-12331
1.335724,844,-561,-12474
1.351349,178,-1158,-12763
1.366974,433,-891,-11324
1.382599,603,-479,-12770
1.398224,441,-408,-14474
1.413849,598,128,-13686
1.429474,530,330,-13851
1.445099,71,-67,-13892
1.460724,-4,-220,-12365
1.476349,416,-509,-11876
1.491974,301,-720,-12595
1.507599,41,-345,-13013
1.523224,348,-67,-13353
1.538849,442,-43,-14015
1.554474,453,-81,-13861
1.570099,649,-197,-13003
1.585724,532,-425,-12888
1.601349,303,-570,-12779
1.616974,233,-340,-12588
1.632599,144,-129,-13224
1.648224,253,-97,-13554
1.663849,499,-106,-13345
1.679474,499,-252,-13404
1.695099,394,-342,-13306
1.710724,276,-342,-13019
1.726349,199,-377,-12845
1.741974,264,-413,-12874
1.757599,419,-431,-13051
1.773224,549,-338,-13169
1.788849,512,-147,-13511
1.804474,346,-42,-13694
1.820099,282,-22,-13224
1.835724,233,-152,-12970
1.851349,203,-442,-12870
1.866974,342,-493,-12662
1.882599,380,-392,-13128
1.898224,385,-290,-13549
1.913849,483,-134,-13445
1.929474,460,-183,-13426
1.945099,430,-317,-13108
1.960724,407,-334,-12790
1.976349,260,-342,-12970
1.991974,248,-254,-13040
2.007599,349,-118,-13201
2.023224,414,-183,-13476
2.038849,541,-270,-13319
2.054474,524,-318,-13219
2.070099,401,-399,-13145
2.085724,353,-383,-12928
2.101349,346,-395,-12960
2.116974,451,-390,-13054
2.132599,519,-293,-13228
2.148224,516,-202,-13388
2.163849,521,-109,-13381
2.179474,423,-142,-13383
2.195099,374,-279,-13051
2.210724,426,-368,-12765
2.226349,407,-495,-13044
2.241974,482,-500,-13069
2.257599,555,-292,-13174
2.273224,469,-258,-13631
2.288849,530,-284,-13308
2.304474,549,-236,-12967
2.320099,403,-350,-13142
2.335724,410,-367,-12920
2.351349,416,-256,-12965
2.366974,417,-270,-13386
2.382599,546,-274,-13315
2.398224,583,-283,-13194
2.413849,544,-393,-13244
2.429474,501,-420,-13113
2.445099,410,-379,-12967
2.460724,385,-368,-12999
2.476349,424,-325,-13185
2.491974,482,-274,-13220
2.507599,523,-193,-13229
2.523224,467,-183,-13445
2.538849,446,-245,-13233
2.554474,442,-267,-12913
2.570099,392,-392,-13097
2.585724,444,-472,-13051
2.601349,503,-367,-13001
2.616974,448,-317,-13395
2.632599,435,-267,-13381
2.648224,451,-181,-13135
2.663849,394,-261,-13199
2.679474,374,-336,-13069
2.695099,382,-297,-12944
2.710724,374,-274,-13153
2.726349,416,-243,-13286
2.741974,471,-247,-13270
2.757599,464,-299,-13217
2.773224,424,-334,-13185
2.788849,373,-358,-13115
2.804474,321,-329,-12990
2.820099,296,-281,-13122
2.835724,324,-270,-13219
2.851349,410,-208,-13136
2.866974,410,-184,-13326
2.882599,378,-222,-13311
2.898224,392,-211,-13079
2.913849,357,-311,-13145
2.929474,371,-392,-13049
2.945099,412,-347,-12969
2.960724,360,-349,-13256
2.976349,360,-274,-13283
2.991974,380,-177,-13181
3.007599,335,-224,-13274
3.023224,349,-274,-13160
3.038849,366,-308,-12986
3.054474,342,-313,-13047
3.070099,366,-268,-13204
3.085724,396,-268,-13258
3.101349,423,-236,-13201
3.116974,407,-229,-13274
3.132599,358,-295,-13188
3.148224,367,-268,-12972
3.163849,333,-283,-13147
3.179474,337,-329,-13190
3.195099,441,-272,-13028
3.210724,458,-286,-13263
3.226349,457,-324,-13328
3.241974,474,-268,-13099
3.257599,396,-270,-13172
3.273224,373,-318,-13158
3.288849,407,-313,-13020
3.304474,382,-308,-13151
3.320099,419,-272,-13228
3.335724,442,-218,-13247
3.351349,432,-242,-13256
3.366974,476,-288,-13129
3.382599,462,-352,-13115
3.398224,464,-406,-13061
3.413849,514,-350,-13042
3.429474,482,-309,-13265
3.445099,471,-286,-13244
3.460724,464,-242,-13181
3.476349,410,-275,-13276
3.491974,410,-286,-13094
3.507599,405,-277,-13067
3.523224,412,-354,-13240
3.538849,512,-367,-13113
3.554474,551,-315,-13097
3.570099,549,-331,-13247
3.585724,562,-363,-13283
3.601349,482,-377,-13199
3.616974,410,-340,-13010
3.632599,364,-293,-13095
3.648224,351,-309,-13163
3.663849,432,-238,-13040
3.679474,433,-209,-13324
3.695099,466,-268,-13351
3.710724,535,-243,-13079
3.726349,467,-336,-13217
3.741974,471,-427,-13072
3.757599,483,-349,-12970
3.773224,417,-374,-13267
3.788849,460,-345,-13163
3.804474,439,-233,-13181
3.820099,369,-267,-13324
3.835724,392,-231,-13081
3.851349,357,-202,-13106
3.866974,346,-281,-13161
3.882599,417,-284,-13038
3.898224,466,-313,-13181
3.913849,519,-354,-13233
3.929474,510,-322,-13195
3.945099,428,-317,-13242
3.960724,382,-302,-13129
3.976349,337,-272,-13108
3.991974,310,-277,-13151
4.007599,339,-238,-13081
4.023224,367,-206,-13247
4.038849,401,-250,-13333
4.054474,442,-254,-13117
4.070099,423,-274,-13160
4.085724,389,-361,-13188
4.101349,408,-358,-12986
4.116974,396,-325,-13117
4.132599,369,-324,-13265
4.148224,396,-254,-13149
4.163849,373,-238,-13231
4.179474,326,-265,-13253
4.195099,333,-218,-13067
4.210724,335,-234,-13104
4.226349,376,-300,-13160
4.241974,448,-308,-13119
4.257599,473,-324,-13190
4.273224,492,-336,-13247
4.288849,458,-317,-13233
4.304474,399,-281,-13142
4.320099,366,-261,-13136
4.335724,319,-290,-13178
4.351349,357,-270,-13053
4.366974,398,-242,-13160
4.382599,387,-288,-13297
4.398224,466,-277,-13111
4.413849,467,-288,-13181
4.429474,428,-349,-13226
4.445099,485,-318,-13010
4.460724,439,-327,-13151
4.476349,408,-343,-13211
4.491974,458,-263,-13104
4.507599,408,-256,-13272
4.523224,408,-267,-13192
4.538849,410,-258,-13126
4.554474,364,-317,-13215
4.570099,439,-299,-13036
4.585724,458,-311,-13153
4.601349,469,-388,-13245
4.616974,544,-333,-13079
4.632599,467,-309,-13224
4.648224,424,-325,-13206
4.663849,469,-281,-13083
4.679474,417,-288,-13176
4.695099,396,-275,-13136
4.710724,412,-270,-13170
4.726349,441,-299,-13197
4.741974,491,-284,-13174
4.757599,457,-331,-13265
4.773224,483,-354,-13088
4.788849,512,-331,-13094
4.804474,432,-386,-13269
4.820099,466,-336,-13029
4.835724,457,-256,-13156
4.851349,378,-290,-13370
4.866974,424,-245,-13079
4.882599,407,-236,-13144
4.898224,394,-311,-13263
4.913849,464,-317,-13070
4.929474,444,-340,-13129
4.945099,444,-342,-13192
4.960724,483,-309,-13165
4.976349,462,-317,-13206
4.991974,441,-279,-13169
5.007599,398,-245,-13172
5.023224,369,-267,-13142
5.038849,399,-263,-13095
5.054474,385,-270,-13219
5.070099,380,-284,-13192
5.085724,405,-267,-13147
5.101349,407,-309,-13256
5.116974,437,-340,-13133
5.132599,439,-313,-13079
5.148224,408,-327,-13206
5.163849,432,-292,-13131
5.179474,416,-231,-13145
5.195099,373,-247,-13258
5.210724,373,-236,-13169
5.226349,367,-238,-13147
5.241974,367,-299,-13181
5.257599,369,-299,-13101
5.273224,389,-302,-13124
5.288849,441,-361,-13185
5.304474,441,-331,-13192
5.320099,407,-277,-13194
5.335724,416,-265,-13151
5.351349,394,-245,-13192
5.366974,360,-252,-13174
5.382599,385,-238,-13067
5.398224,369,-254,-13188
5.413849,382,-315,-13206
5.429474,441,-300,-13095
5.445099,398,-306,-13220
5.460724,405,-329,-13170
5.476349,451,-300,-13058
5.491974,396,-322,-13190
5.507599,407,-308,-13161
5.523224,426,-261,-13133
5.538849,392,-284,-13224
5.554474,403,-254,-13204
5.570099,392,-238,-13197
5.585724,394,-292,-13144
5.601349,424,-302,-13133
5.616974,423,-324,-13199
5.632599,444,-331,-13094
5.648224,464,-317,-13172
5.663849,448,-356,-13292
5.679474,473,-302,-13078
5.695099,451,-238,-13149
5.710724,399,-283,-13267
5.726349,423,-259,-13051
5.741974,408,-267,-13136
5.757599,382,-322,-13245
5.773224,439,-302,-13104
5.788849,467,-325,-13165
5.804474,457,-347,-13222
5.820099,466,-320,-13131
5.835724,458,-327,-13115
5.851349,458,-315,-13178
5.866974,448,-290,-13210
5.882599,455,-265,-13110
5.898224,473,-242,-13165
5.913849,426,-290,-13288
5.929474,432,-306,-13058
5.945099,446,-292,-13078
5.960724,398,-361,-13322
5.976349,451,-354,-13065
5.991974,474,-295,-13067
6.007599,399,-342,-13361
6.023224,444,-311,-13078
6.038849,448,-247,-13040
6.054474,369,-300,-13340
6.070099,419,-279,-13103
6.085724,444,-238,-13047
6.101349,401,-300,-13283
6.116974,441,-288,-13140
6.132599,441,-270,-13119
6.148224,414,-313,-13210
6.163849,442,-309,-13120
6.179474,419,-320,-13153
6.195099,416,-318,-13151
6.210724,416,-272,-13170
6.226349,392,-261,-13211
6.241974,421,-243,-13106
6.257599,380,-252,-13215
6.273224,378,-300,-13222
6.288849,442,-293,-13047
6.304474,398,-329,-13188
6.320099,398,-350,-13186
6.335724,430,-295,-13090
6.351349,396,-311,-13210
6.366974,414,-304,-13140
6.382599,398,-238,-13181
6.398224,366,-267,-13231
6.413849,424,-261,-13033
6.429474,387,-252,-13217
6.445099,373,-309,-13222
6.460724,462,-265,-12983
6.476349,401,-286,-13276
6.491974,389,-340,-13215
6.507599,435,-277,-12983
6.523224,362,-320,-13272
6.538849,389,-350,-13201
6.554474,414,-281,-13053
6.570099,357,-281,-13249
6.585724,392,-261,-13201
6.601349,417,-247,-13122
6.616974,408,-283,-13190
6.632599,419,-284,-13172
6.648224,442,-315,-13113
6.663849,474,-325,-13110
6.679474,441,-309,-13229
6.695099,428,-322,-13195
6.710724,439,-292,-13101
6.726349,373,-279,-13233
6.741974,382,-293,-13163
6.757599,430,-258,-13051
6.773224,389,-283,-13242
6.788849,442,-325,-13181
6.804474,494,-275,-13069
6.820099,424,-288,-13256
6.835724,432,-327,-13185
6.851349,453,-297,-13065
6.866974,391,-318,-13210
6.882599,389,-329,-13174
6.898224,424,-286,-13115
6.913849,412,-292,-13210
6.929474,421,-292,-13178
6.945099,423,-279,-13135
6.960724,432,-297,-13170
6.976349,464,-304,-13154
6.991974,451,-318,-13144
7.007599,455,-318,-13135
7.023224,457,-290,-13185
7.038849,424,-306,-13210
7.054474,414,-300,-13119
7.070099,394,-288,-13203
7.085724,391,-313,-13204
7.101349,430,-275,-13054
7.116974,407,-283,-13211
7.132599,396,-315,-13210
7.148224,448,-267,-13070
7.163849,441,-293,-13269
7.179474,441,-338,-13210
7.195099,458,-293,-13035
7.210724,398,-299,-13228
7.226349,396,-311,-13194
7.241974,433,-265,-13056
7.257599,394,-283,-13210
7.273224,403,-302,-13215
7.288849,435,-290,-13126
7.304474,419,-295,-13161
7.320099,423,-290,-13179
7.335724,426,-302,-13133
7.351349,421,-295,-13086
7.366974,396,-283,-13226
7.382599,383,-302,-13220
7.398224,432,-268,-13024
7.413849,391,-265,-13233
7.429474,348,-311,-13260
7.445099,410,-265,-12961
7.460724,373,-267,-13204
7.476349,371,-320,-13281
7.491974,457,-265,-13013
7.507599,387,-275,-13226
7.523224,376,-331,-13229
7.538849,442,-286,-13024
7.554474,362,-286,-13236
7.570099,374,-286,-13188
7.585724,424,-236,-13051
7.601349,364,-275,-13242
7.616974,387,-300,-13188
7.632599,405,-258,-13090
7.648224,376,-286,-13178
7.663849,383,-324,-13163
7.679474,378,-299,-13129
7.695099,396,-272,-13135
7.710724,391,-267,-13190
7.726349,362,-274,-13167
7.741974,385,-240,-13069
7.757599,348,-240,-13206
7.773224,332,-279,-13185
7.788849,376,-249,-13049
7.804474,316,-261,-13267
7.820099,289,-259,-13188
7.835724,314,-174,-13003
7.851349,253,-218,-13272
7.866974,276,-258,-13188
7.882599,321,-177,-13029
7.898224,280,-215,-13261
7.913849,294,-229,-13158
7.929474,282,-156,-13079
7.945099,232,-197,-13240
7.960724,248,-177,-13110
7.976349,230,-115,-13110
7.991974,205,-150,-13211
8.007599,226,-158,-13115
8.023224,237,-165,-13124
8.038849,276,-172,-13154
8.054474,301,-147,-13169
8.070099,289,-181,-13176
8.085724,316,-172,-13124
8.101349,319,-142,-13219
8.116974,342,-172,-13172
8.132599,371,-142,-13086
8.148224,301,-156,-13251
8.163849,301,-170,-13120
8.179474,328,-92,-13070
8.195099,296,-131,-13295
8.210724,346,-136,-13108
8.226349,344,-74,-13104
8.241974,285,-125,-13299
8.257599,355,-86,-13081
8.273224,382,-38,-13128
8.288849,360,-118,-13269
8.304474,417,-86,-13094
8.320099,403,-50,-13161
8.335724,351,-84,-13219
8.351349,366,-45,-13090
8.366974,367,-24,-13140
8.382599,330,-2,-13188
8.398224,319,24,-13156
8.413849,369,-2,-13138
8.429474,410,10,-13179
8.445099,448,0,-13211
8.460724,474,-18,-13078
8.476349,419,32,-13124
8.491974,401,21,-13258
8.507599,455,39,-13070
8.523224,449,108,-13140
8.538849,444,64,-13324
8.554474,510,71,-13079
8.570099,548,116,-13113
8.585724,516,60,-13270
8.601349,485,96,-13040
8.616974,451,169,-13085
8.632599,435,169,-13240
8.648224,489,198,-13110
8.663849,558,183,-13142
8.679474,599,148,-13236
8.695099,569,199,-13154
8.710724,528,239,-13074
8.726349,503,248,-13106
8.741974,491,266,-13210
8.757599,542,273,-13144
8.773224,569,314,-13117
8.788849,560,308,-13294
8.804474,564,312,-13149
8.820099,557,396,-13004
8.835724,599,362,-13195
8.851349,669,342,-13117
8.866974,644,419,-13079
8.882599,582,426,-13285
8.898224,599,448,-13174
8.913849,635,455,-13076
8.929474,642,421,-13151
8.945099,651,460,-13110
8.960724,624,519,-13167
8.976349,576,589,-13231
8.991974,644,614,-13199
9.007599,719,555,-13192
9.023224,657,578,-13083
9.038849,605,649,-13108
9.054474,639,660,-13240
9.070099,696,673,-13172
9.085724,712,673,-13145
9.101349,648,682,-13183
9.116974,580,748,-13095
9.132599,653,758,-13076
9.148224,730,723,-13176
9.163849,685,767,-13172
9.179474,658,848,-13120
9.195099,692,862,-13147
9.210724,714,848,-13108
9.226349,658,880,-13065
9.241974,623,921,-13154
9.257599,696,926,-13206
9.273224,723,914,-13140
9.288849,657,939,-13136
9.304474,635,980,-13204
9.320099,678,992,-13110
9.335724,717,985,-13065
9.351349,682,1014,-13206
9.366974,624,1101,-13160
9.382599,664,1115,-13094
9.398224,680,1071,-13161
9.413849,598,1107,-13124
9.429474,591,1155,-13117
9.445099,639,1151,-13151
9.460724,587,1160,-13135
9.476349,573,1212,-13163
9.491974,637,1223,-13128
9.507599,621,1214,-13124
9.523224,555,1271,-13169
9.538849,521,1310,-13099
9.554474,551,1280,-13161
9.570099,548,1290,-13211
9.585724,453,1344,-13060
9.601349,514,1340,-13136
9.616974,548,1333,-13228
9.632599,410,1373,-13088
9.648224,496,1356,-13161
9.663849,548,1339,-13219
9.679474,382,1414,-13110
9.695099,430,1449,-13167
9.710724,448,1415,-13174
9.726349,346,1426,-13110
9.741974,403,1440,-13147
9.757599,398,1405,-13136
9.773224,337,1440,-13149
9.788849,373,1476,-13178
9.804474,371,1417,-13120
9.820099,308,1444,-13135
9.835724,303,1510,-13167
9.851349,342,1456,-13144
9.866974,305,1449,-13142
9.882599,242,1496,-13135
9.898224,251,1462,-13136
9.913849,214,1465,-13138
9.929474,183,1490,-13135
9.945099,219,1473,-13154
9.960724,178,1483,-13131
9.976349,178,1476,-13142
9.991974,192,1455,-13172
10.007599,114,1485,-13135
10.023224,110,1478,-13133
10.038849,133,1440,-13165
10.054474,98,1476,-13170
10.070099,126,1448,-13163
10.085724,108,1415,-13145
10.101349,42,1458,-13147
10.116974,92,1398,-13178
10.132721,80,1398,-13170
10.148346,26,1444,-13135
10.163971,51,1367,-13136
10.179596,21,1365,-13110
10.195221,33,1356,-13101
10.210846,57,1344,-13156
10.226471,7,1390,-13154
10.242096,32,1330,-13138
10.257721,24,1319,-13145
10.273346,30,1340,-13145
10.288971,103,1239,-13170
10.304596,53,1231,-13163
10.320221,39,1265,-13170
10.335846,44,1233,-13190
10.351471,28,1260,-13124
10.367096,71,1219,-13115
10.382721,44,1196,-13167
10.398346,83,1208,-13113
10.413971,128,1135,-13108
10.429596,78,1149,-13194
10.445221,135,1144,-13133
10.460846,141,1108,-13103
10.476471,103,1142,-13178
10.492096,173,1090,-13111
10.507721,173,1076,-13111
10.523346,205,1099,-13185
10.538971,253,1051,-13156
10.554596,207,1069,-13147
10.570221,248,1085,-13122
10.585846,298,1049,-13149
10.601471,301,1039,-13169
10.617096,362,1030,-13090
10.632721,358,1024,-13185
10.648346,376,1030,-13179
10.663971,499,1019,-13065
10.679596,458,1008,-13226
10.695221,424,1035,-13195
10.710846,533,1037,-13053
10.726471,524,1032,-13215
10.742096,555,1032,-13161
10.757721,605,1049,-13038
10.773346,598,1073,-13197
10.788971,698,1057,-13158
10.804596,732,1092,-13101
10.820221,721,1119,-13185
10.835846,817,1108,-13128
10.851471,796,1124,-13165
10.867096,789,1149,-13115
10.882721,921,1187,-13063
10.898346,910,1180,-13215
10.913971,949,1182,-13040
10.929596,1035,1260,-13081
10.945221,1007,1255,-13370
10.960846,1067,1280,-13051
10.976471,1080,1380,-13031
10.992096,1062,1335,-13306
11.007721,1176,1367,-13031
11.023346,1219,1437,-13074
11.038971,1212,1387,-13270
11.054596,1258,1464,-13099
11.070221,1269,1505,-13142
11.085846,1301,1508,-13186
11.101471,1346,1628,-13181
11.117096,1349,1635,-13190
11.132599,1387,1653,-13078
11.148224,1421,1698,-13204
11.163849,1421,1703,-13163
11.179474,1414,1823,-13047
11.195099,1415,1876,-13290
11.210724,1464,1890,-13188
11.226349,1483,1951,-13051
11.241974,1467,1951,-13156
11.257599,1480,2021,-13035
11.273224,1521,2085,-13104
11.288849,1499,2094,-13186
11.304474,1464,2208,-13086
11.320099,1540,2226,-13174
11.335724,1565,2178,-13092
11.351349,1503,2269,-13038
11.366974,1524,2314,-13210
11.382599,1544,2335,-13201
11.398224,1508,2394,-13204
11.413849,1494,2431,-13163
11.429474,1473,2483,-13010
11.445099,1439,2530,-13056
11.460724,1449,2578,-13131
11.476349,1473,2617,-13144
11.491974,1460,2628,-13170
11.507599,1431,2640,-13113
11.523224,1399,2655,-13088
11.538849,1364,2672,-13128
11.554474,1358,2715,-13129
11.570099,1364,2776,-13160
11.585724,1323,2815,-13156
11.601349,1289,2849,-13099
11.616974,1281,2853,-13136
11.632599,1231,2833,-13156
11.648224,1157,2858,-13095
11.663849,1151,2869,-13131
11.679474,1139,2887,-13128
11.695099,1108,2894,-13079
11.710724,1135,2862,-13172
11.726349,1089,2896,-13204
11.741974,1008,2935,-13136
11.757599,1015,2938,-13129
11.773224,992,2908,-13108
11.788849,958,2872,-13088
11.804474,948,2892,-13110
11.820099,901,2883,-13147
11.835724,894,2887,-13210
11.851349,915,2872,-13174
11.866974,876,2792,-13122
11.882599,823,2813,-13124
11.898224,835,2794,-13069
11.913849,848,2706,-13103
11.929474,790,2746,-13178
11.945099,773,2756,-13131
11.960724,783,2713,-13136
11.976349,778,2705,-13154
11.991974,799,2644,-13067
12.007599,798,2599,-13061
12.023224,817,2588,-13131
12.038849,855,2546,-13161
12.054474,833,2558,-13192
12.070099,835,2572,-13161
12.085724,840,2506,-13095
12.101349,819,2465,-13111
12.116974,889,2428,-13117
12.132599,944,2389,-13151
12.148224,908,2426,-13224
12.163849,989,2412,-13126
12.179474,1065,2349,-13078
12.195099,1005,2360,-13158
12.210724,1049,2376,-13095
12.226349,1114,2355,-13104
12.241974,1117,2342,-13192
12.257599,1176,2339,-13122
12.273224,1207,2319,-13078
12.288849,1253,2287,-13124
12.304474,1289,2310,-13176
12.320099,1328,2351,-13156
12.335724,1417,2362,-13101
12.351349,1399,2371,-13190
12.366974,1449,2374,-13138
12.382599,1583,2417,-13026
12.398224,1549,2431,-13215
12.413849,1610,2417,-13145
12.429474,1739,2456,-13026
12.445099,1705,2462,-13256
12.460724,1760,2505,-13129
12.476349,1817,2587,-13042
12.491974,1783,2581,-13235
12.507599,1860,2635,-13117
12.523224,1915,2694,-13106
12.538849,1928,2672,-13149
12.554474,1974,2731,-13067
12.570099,1985,2776,-13136
12.585724,2031,2842,-13065
12.601349,2065,2940,-13135
12.616974,2078,2949,-13254
12.632599,2126,3056,-13058
12.648224,2149,3103,-13131
12.663849,2156,3044,-13113
12.679474,2158,3138,-12956
12.695099,2158,3187,-13192
12.710724,2135,3251,-13161
12.726349,2131,3403,-13070
12.741974,2160,3419,-13210
12.757599,2164,3435,-13085
12.773224,2217,3465,-13056
12.788849,2215,3490,-13122
12.804474,2158,3599,-13094
12.820099,2172,3649,-13163
12.835724,2103,3678,-13140
12.851349,2051,3742,-13076
12.866974,2092,3740,-13049
12.882599,2067,3763,-13042
12.898224,2049,3828,-13176
12.913849,2058,3854,-13226
12.929474,1989,3888,-13104
12.945099,1926,3915,-13049
12.960724,1908,3933,-13038
12.976349,1840,3970,-13028
12.991974,1812,3995,-13129
13.007599,1837,4017,-13210
13.023224,1801,4012,-13163
13.038849,1755,4008,-13133
13.054474,1710,3999,-13106
13.070099,1644,3972,-13053
13.085724,1605,4010,-13078
13.101349,1596,4006,-13119
13.116974,1590,3969,-13153
13.132599,1571,3997,-13176
13.148224,1535,3972,-13169
13.163849,1489,3928,-13165
13.179474,1446,3922,-13070
13.195099,1437,3851,-13028
13.210724,1439,3842,-13111
13.226349,1430,3853,-13103
13.241974,1430,3799,-13161
13.257599,1396,3837,-13231
13.273224,1387,3815,-13117
13.288849,1412,3706,-13101
13.304474,1390,3665,-13115
13.320099,1415,3594,-13033
13.335724,1439,3547,-13108
13.351349,1421,3583,-13194
13.366974,1471,3542,-13126
13.382599,1490,3483,-13126
13.398224,1478,3492,-13122
13.413849,1539,3453,-13053
13.429474,1573,3406,-13128
13.445099,1573,3412,-13170
13.460724,1633,3401,-13124
13.476349,1648,3374,-13149
13.491974,1664,3363,-13070
13.507599,1739,3351,-13060
13.523224,1776,3338,-13151
13.538849,1880,3342,-13099
13.554474,1926,3354,-13147
13.570099,1930,3379,-13178
13.585724,2026,3410,-13074
13.601349,2042,3397,-13133
13.616974,2065,3392,-13094
13.632599,2153,3437,-13045
13.648224,2206,3419,-13194
13.663849,2299,3447,-13142
13.679474,2344,3551,-13170
13.695099,2331,3558,-13244
13.710724,2419,3626,-13011
13.726349,2433,3669,-13086
13.741974,2406,3619,-13131
13.757599,2508,3733,-12936
13.773224,2572,3781,-13210
13.788849,2610,3781,-13265
13.804474,2665,3951,-13065
13.820099,2662,3972,-13213
13.835724,2644,3969,-13076
13.851349,2663,4063,-12947
13.866974,2685,4072,-13108
13.882599,2688,4172,-13117
13.898224,2733,4253,-13183
13.913849,2715,4299,-13154
13.929474,2697,4395,-13083
13.945099,2738,4372,-13074
13.960724,2690,4453,-12988
13.976349,2713,4556,-13179
13.991974,2712,4545,-13208
14.007599,2610,4642,-13022
14.023224,2644,4667,-13151
14.038849,2587,4640,-13079
14.054474,2526,4744,-12963
14.070099,2587,4795,-13176
14.085724,2510,4808,-13201
14.101349,2474,4861,-13120
14.116974,2462,4890,-13124
14.132721,2358,4894,-13072
14.148346,2319,4897,-13038
14.163971,2283,4903,-13053
14.179596,2276,4904,-13106
14.195221,2265,4897,-13153
14.210846,2197,4904,-13154
14.226471,2185,4908,-13160
14.242096,2115,4870,-13103
14.257721,2021,4856,-13031
14.273346,2019,4836,-13061
14.288971,2008,4786,-13088
14.304596,1981,4790,-13103
14.320221,1955,4795,-13190
14.335846,1928,4783,-13203
14.351471,1914,4744,-13115
14.367096,1889,4669,-13094
14.382721,1880,4617,-13070
14.398346,1881,4529,-13042
14.413971,1890,4495,-13122
14.429596,1964,4497,-13161
14.445221,2006,4408,-13161
14.460846,1983,4363,-13144
14.476471,2049,4281,-13024
14.492096,2058,4162,-13051
14.507721,2028,4151,-13133
14.523346,2164,4051,-13081
14.538971,2135,3965,-13169
14.554596,2078,3979,-13199
14.570221,2233,3860,-13013
14.585846,2189,3797,-13040
14.601471,2169,3819,-13124
14.617096,2299,3744,-13072
14.632721,2258,3726,-13145
14.648346,2321,3697,-13165
14.663971,2389,3613,-13067
14.679596,2335,3621,-13101
14.695221,2439,3604,-13144
14.710846,2447,3558,-13124
14.726471,2444,3592,-13083
14.742096,2571,3592,-13092
14.757721,2524,3556,-13156
14.773346,2576,3606,-13086
14.788971,2674,3633,-13169
14.804596,2590,3579,-13249
14.820221,2678,3622,-13011
14.835846,2735,3594,-13110
14.851471,2642,3537,-13158
14.867096,2774,3647,-12988
14.882721,2844,3601,-13315
14.898346,2738,3617,-13315
14.913971,2774,3778,-13029
14.929596,2747,3729,-13110
14.945221,2688,3756,-13022
14.960846,2769,3835,-13078
14.976471,2763,3790,-13229
14.992096,2722,3862,-13104
15.007721,2797,3897,-13167
15.023346,2755,3870,-13179
15.038971,2667,3958,-13067
15.054596,2712,3924,-13097
15.070221,2608,3894,-13022
15.085846,2492,3985,-13051
15.101471,2513,4026,-13197
15.117096,2415,4074,-13133
15.132599,2396,4060,-13063
15.148224,2437,4006,-13045
15.163849,2306,4053,-13004
15.179474,2312,4056,-13076
15.195099,2356,3999,-13201
15.210724,2199,4040,-13210
15.226349,2149,4053,-13129
15.241974,2169,3919,-13065
15.257599,2040,3922,-13047
15.273224,2019,3976,-13061
15.288849,2040,3867,-13133
15.304474,1890,3903,-13204
15.320099,1880,3947,-13156
15.335724,1914,3774,-13092
15.351349,1715,3745,-13090
15.366974,1653,3815,-13081
15.382599,1724,3656,-13099
15.398224,1606,3601,-13147
15.413849,1560,3694,-13138
15.429474,1681,3537,-13147
15.445099,1549,3451,-13174
15.460724,1364,3544,-13117
15.476349,1476,3379,-13106
15.491974,1428,3229,-13111
15.507599,1226,3347,-13088
15.523224,1401,3233,-13160
15.538849,1481,3005,-13170
15.554474,1210,3083,-13113
15.570099,1269,3115,-13136
15.585724,1428,2901,-13111
15.601349,1173,2871,-13081
15.616974,1124,2963,-13138
15.632599,1421,2738,-13111
15.648224,1289,2588,-13119
15.663849,1080,2730,-13158
15.679474,1364,2626,-13097
15.695099,1412,2417,-13115
15.710724,1151,2524,-13149
15.726349,1303,2528,-13120
15.741974,1487,2287,-13133
15.757599,1249,2292,-13136
15.773224,1164,2397,-13156
15.788849,1401,2255,-13138
15.804474,1412,2140,-13060
15.820099,1264,2233,-13135
15.835724,1437,2215,-13147
15.851349,1617,2078,-13054
15.866974,1435,2103,-13167
15.882599,1412,2181,-13178
15.898224,1646,2099,-13053
15.913849,1587,1997,-13117
15.929474,1439,2053,-13128
15.945099,1599,2056,-13054
15.960724,1731,1930,-13113
15.976349,1621,1965,-13169
15.991974,1601,2053,-13144
16.007599,1767,2019,-13083
16.023224,1796,2014,-13136
16.038849,1683,2024,-13226
16.054474,1781,2044,-13044
16.070099,1908,2039,-13069
16.085724,1796,1997,-13286
16.101349,1787,2067,-13011
16.116974,1896,2089,-13045
16.132599,1887,1983,-13322
16.148224,1862,2055,-13015
16.163849,1867,2146,-13072
16.179474,1905,2067,-13308
16.195099,1917,2133,-13035
16.210724,1889,2231,-13088
16.226349,1887,2180,-13249
16.241974,1871,2249,-13035
16.257599,1858,2303,-13047
16.273224,1858,2260,-13179
16.288849,1896,2272,-13117
16.304474,1919,2283,-13074
16.320099,1844,2317,-13045
16.335724,1817,2339,-13081
16.351349,1903,2276,-13092
16.366974,1908,2269,-13051
16.382599,1778,2360,-13144
16.398224,1703,2424,-13129
16.413849,1765,2414,-13120
16.429474,1833,2340,-13217
16.445099,1778,2349,-13113
16.460724,1735,2444,-13128
16.476349,1785,2463,-13278
16.491974,1715,2437,-13222
16.507599,1642,2426,-13176
16.523224,1617,2430,-13110
16.538849,1533,2430,-13010
16.554474,1517,2421,-13128
16.570099,1462,2469,-13215
16.585724,1387,2510,-13179
16.601349,1424,2476,-13158
16.616974,1365,2440,-13063
16.632599,1265,2440,-13040
16.648224,1258,2446,-13111
16.663849,1260,2417,-13108
16.679474,1271,2381,-13128
16.695099,1242,2353,-13170
16.710724,1173,2344,-13163
16.726349,1121,2340,-13160
16.741974,1071,2312,-13140
16.757599,989,2297,-13097
16.773224,924,2274,-13078
16.788849,912,2226,-13085
16.804474,912,2190,-13156
16.820099,882,2185,-13219
16.835724,817,2196,-13197
16.851349,808,2171,-13169
16.866974,821,2089,-13111
16.882599,783,2005,-13063
16.898224,742,1996,-13128
16.913849,708,2001,-13174
16.929474,657,1971,-13147
16.945099,653,1914,-13169
16.960724,632,1847,-13176
16.976349,541,1833,-13135
16.991974,519,1776,-13067
17.007599,535,1706,-13033
17.023224,524,1690,-13142
17.038849,535,1681,-13192
17.054474,537,1648,-13199
17.070099,503,1619,-13240
17.085724,494,1565,-13097
17.101349,466,1451,-13006
17.116974,408,1435,-13115
17.132721,430,1417,-13120
17.148346,437,1335,-13169
17.163971,428,1312,-13265
17.179596,448,1262,-13133
17.195221,428,1221,-13063
17.210846,412,1212,-13115
17.226471,471,1169,-13133
17.242096,542,1110,-13204
17.257721,469,1108,-13174
17.273346,396,1126,-13138
17.288971,439,1040,-13142
17.304596,499,958,-13058
17.320221,523,935,-13160
17.335846,483,917,-13249
17.351471,521,890,-13111
17.367096,521,848,-13133
17.382721,453,844,-13160
17.398346,592,810,-13060
17.413971,578,773,-13186
17.429596,485,812,-13235
17.445221,614,776,-13079
17.460846,557,721,-13136
17.476471,615,696,-13145
17.492096,732,653,-13111
17.507721,562,667,-13256
17.523346,646,653,-13170
17.538971,735,619,-13069
17.554596,653,630,-13206
17.570221,774,580,-13176
17.585846,703,576,-13163
17.601471,617,614,-13245
17.617096,739,555,-13104
17.632721,714,530,-13053
17.648346,874,501,-13154
17.663971,998,449,-13178
17.679596,812,532,-13244
17.695221,899,599,-13194
17.710846,994,562,-13136
17.726471,885,526,-13179
17.742096,983,546,-13115
17.757721,914,553,-13172
17.773346,780,533,-13188
17.788971,949,524,-13094
17.804596,923,496,-13199
17.820221,915,498,-13153
17.835846,1080,485,-13067
17.851471,980,507,-13149
17.867096,973,608,-13042
17.882721,1103,608,-13147
17.898346,1017,557,-13260
17.913971,1039,648,-13040
17.929596,1126,651,-13213
17.945221,1024,574,-13219
17.960846,1008,660,-12961
17.976471,1124,567,-13226
17.992096,1115,485,-13188
18.007721,1046,651,-13006
18.023346,1123,603,-13172
18.038971,1133,583,-13074
18.054596,1007,707,-13086
18.070221,1096,655,-13160
18.085846,1174,635,-13092
18.101471,1019,673,-13183
18.117096,1128,673,-13061
18.132599,1298,605,-13119
18.148224,1121,576,-13269
18.163849,1080,739,-13036
18.179474,1214,730,-13172
18.195099,1101,665,-13231
18.210724,996,835,-12997
18.226349,1171,783,-13229
18.241974,1235,605,-13283
18.257599,1046,732,-13088
18.273224,1058,824,-13192
18.288849,1176,753,-13186
18.304474,1064,789,-13140
18.320099,1012,837,-13181
18.335724,1144,807,-13103
18.351349,1130,801,-13113
18.366974,976,862,-13140
18.382599,1021,890,-13119
18.398224,1126,835,-13192
18.413849,999,842,-13170
18.429474,924,899,-13099
18.445099,1012,860,-13165
18.460724,992,867,-13135
18.476349,896,948,-13079
18.491974,935,935,-13210
18.507599,1024,878,-13176
18.523224,960,887,-13086
18.538849,862,935,-13206
18.554474,871,967,-13149
18.570099,939,937,-13058
18.585724,910,896,-13176
18.601349,794,964,-13181
18.616974,848,978,-13124
18.632599,926,865,-13136
18.648224,826,887,-13136
18.663849,760,971,-13136
18.679474,796,939,-13151
18.695099,805,921,-13183
18.710724,726,948,-13153
18.726349,642,969,-13111
18.741974,680,962,-13149
18.757599,726,903,-13133
18.773224,685,896,-13128
18.788849,635,948,-13170
18.804474,639,953,-13138
18.820099,705,933,-13131
18.835724,699,940,-13133
18.851349,592,967,-13153
18.866974,551,980,-13220
18.882599,541,973,-13111
18.898224,571,933,-13074
18.913849,573,896,-13192
18.929474,442,928,-13115
18.945099,444,937,-13117
18.960724,542,901,-13226
18.976349,524,865,-13115
18.991974,469,865,-13090
19.007599,408,942,-13201
19.023224,380,949,-13147
19.038849,421,873,-13106
19.054474,414,857,-13163
19.070099,319,858,-13149
19.085724,312,869,-13153
19.101349,342,865,-13167
19.116974,319,823,-13124
19.132599,380,794,-13122
19.148224,358,780,-13124
19.163849,228,821,-13149
19.179474,207,885,-13181
19.195099,207,849,-13145
19.210724,241,792,-13135
19.226349,276,744,-13133
19.241974,194,714,-13124
19.257599,137,782,-13167
19.273224,174,771,-13179
19.288849,174,701,-13138
19.304474,153,732,-13135
19.320099,196,728,-13178
19.335724,171,710,-13178
19.351349,80,748,-13120
19.366974,73,735,-13149
19.382599,87,732,-13169
19.398224,76,703,-13085
19.413849,116,632,-13120
19.429474,110,642,-13197
19.445099,24,678,-13135
19.460724,33,658,-13145
19.476349,58,633,-13185
19.491974,-25,646,-13115
19.507599,-38,649,-13131
19.523224,32,619,-13185
19.538849,26,558,-13129
19.554474,-18,544,-13133
19.570099,-27,589,-13219
19.585724,-20,551,-13190
19.601349,-54,526,-13138
19.616974,-102,585,-13170
19.632599,-86,558,-13151
19.648224,-45,492,-13106
19.663849,-36,478,-13163
19.679474,-77,507,-13211
19.695099,-136,558,-13172
19.710724,-125,548,-13170
19.726349,-63,499,-13199
19.741974,-92,480,-13122
19.757599,-168,492,-13103
19.773224,-127,496,-13174
19.788849,-93,430,-13149
19.804474,-125,389,-13163
19.820099,-95,385,-13203
19.835724,-122,332,-13145
19.851349,-218,351,-13138
19.866974,-256,383,-13113
19.882599,-217,323,-13083
19.898224,-159,351,-13158
19.913849,-152,405,-13179
19.929474,-147,439,-13174
19.945099,-104,499,-13206
19.960724,-77,510,-13174
19.976349,-81,519,-13144
19.991974,-100,501,-13165
20.007599,-149,458,-13170
20.023224,-172,403,-13190
20.038849,-174,276,-13236
20.054474,-261,233,-13165
20.070099,-345,232,-13070
20.085724,-299,210,-13117
20.101349,-209,230,-13103
20.116974,-188,246,-13092
20.132599,-184,360,-13208
20.148224,-150,439,-13236
20.163849,-142,424,-13195
20.179474,-188,460,-13213
20.195099,-238,439,-13185
20.210724,-268,378,-13081
20.226349,-286,280,-13081
20.241974,-299,210,-13167
20.257599,-308,210,-13106
20.273224,-263,157,-13111
20.288849,-204,192,-13238
20.304474,-218,251,-13154
20.320099,-211,273,-13099
20.335724,-158,367,-13178
20.351349,-174,385,-13149
20.366974,-195,371,-13158
20.382599,-188,369,-13211
20.398224,-197,299,-13172
20.413849,-220,244,-13120
20.429474,-245,167,-13108
20.445099,-231,114,-13115
20.460724,-208,141,-13101
20.476349,-211,176,-13129
20.491974,-208,233,-13203
20.507599,-208,289,-13185
20.523224,-208,330,-13170
20.538849,-202,371,-13190
20.554474,-215,360,-13138
20.570099,-224,317,-13133
20.585724,-233,310,-13170
20.601349,-265,280,-13136
20.616974,-292,224,-13129
20.632599,-286,221,-13154
20.648224,-293,226,-13119
20.663849,-306,224,-13111
20.679474,-308,294,-13140
20.695099,-313,362,-13136
20.710724,-318,410,-13160
20.726349,-325,462,-13199
20.741974,-340,460,-13186
20.757599,-354,428,-13140
20.773224,-368,385,-13095
20.788849,-386,353,-13110
20.804474,-393,332,-13142
20.820099,-397,301,-13142
20.835724,-418,316,-13161
20.851349,-413,366,-13165
20.866974,-420,389,-13129
20.882599,-449,446,-13110
20.898224,-433,483,-13088
20.913849,-381,460,-13142
20.929474,-374,487,-13224
20.945099,-411,487,-13188
20.960724,-422,460,-13174
20.976349,-452,441,-13174
20.991974,-481,373,-13110
21.007599,-497,357,-13110
21.023224,-479,374,-13131
21.038849,-404,341,-13131
21.054474,-408,392,-13183
21.070099,-445,498,-13217
21.085724,-434,507,-13174
21.101349,-433,507,-13144
21.116974,-429,501,-13154
21.132599,-442,480,-13135
21.148224,-447,451,-13124
21.163849,-447,403,-13179
21.179474,-479,410,-13188
21.195099,-484,416,-13128
21.210724,-450,382,-13136
21.226349,-438,405,-13163
21.241974,-458,437,-13111
21.257599,-450,444,-13131
21.273224,-402,483,-13219
21.288849,-392,483,-13195
21.304474,-399,471,-13156
21.320099,-390,491,-13190
21.335724,-409,448,-13144
21.351349,-433,383,-13079
21.366974,-415,366,-13120
21.382599,-429,373,-13156
21.398224,-427,374,-13147
21.413849,-384,366,-13160
21.429474,-375,403,-13179
21.445099,-365,453,-13133
21.460724,-338,424,-13104
21.476349,-320,426,-13172
21.491974,-311,435,-13174
21.507599,-331,383,-13147
21.523224,-311,382,-13161
21.538849,-261,321,-13172
21.554474,-302,283,-13197
21.570099,-402,337,-13086
21.585724,-429,307,-13085
21.601349,-392,380,-13219
21.616974,-350,414,-13092
21.632599,-268,335,-13104
21.648224,-186,403,-13303
21.663849,-168,374,-13170
21.679474,-172,298,-13092
21.695099,-229,351,-13228
21.710724,-299,342,-13115
21.726349,-345,289,-13033
21.741974,-390,316,-13206
21.757599,-392,342,-13154
21.773224,-381,312,-13070
21.788849,-356,335,-13261
21.804474,-277,382,-13190
21.820099,-206,314,-13029
21.835724,-152,316,-13217
21.851349,-147,358,-13210
21.866974,-220,274,-13061
21.882599,-288,332,-13206
21.898224,-363,391,-13215
21.913849,-422,317,-13070
21.929474,-406,321,-13170
21.945099,-388,344,-13203
21.960724,-402,335,-13047
21.976349,-365,349,-13144
21.991974,-284,416,-13256
22.007599,-240,408,-13092
22.023224,-200,349,-13178
22.038849,-188,371,-13317
22.054474,-254,328,-13081
22.070099,-336,276,-13085
22.085724,-409,337,-13219
22.101349,-483,337,-13063
22.116974,-479,346,-13113
22.132599,-440,430,-13258
22.148224,-406,426,-13154
22.163849,-367,412,-13136
22.179474,-340,444,-13188
22.195099,-311,424,-13119
22.210724,-304,392,-13113
22.226349,-320,396,-13195
22.241974,-345,392,-13172
22.257599,-429,383,-13129
22.273224,-506,414,-13190
22.288849,-518,433,-13163
22.304474,-522,396,-13072
22.320099,-492,414,-13136
22.335724,-420,444,-13172
22.351349,-356,419,-13122
22.366974,-304,430,-13215
22.382599,-295,444,-13211
22.398224,-334,398,-13106
22.413849,-375,389,-13178
22.429474,-447,430,-13156
22.445099,-500,401,-13070
22.460724,-499,419,-13188
22.476349,-492,451,-13188
22.491974,-463,398,-13110
22.507599,-417,407,-13194
22.523224,-363,408,-13156
22.538849,-313,355,-13094
22.554474,-309,387,-13176
22.570099,-322,408,-13178
22.585724,-329,403,-13147
22.601349,-372,426,-13183
22.616974,-440,428,-13169
22.632599,-477,421,-13081
22.648224,-472,383,-13104
22.663849,-425,380,-13167
22.679474,-365,367,-13070
22.695099,-318,349,-13119
22.710724,-283,407,-13324
22.726349,-238,414,-13179
22.741974,-247,344,-13060
22.757599,-292,364,-13301
22.773224,-318,396,-13135
22.788849,-372,274,-12899
22.804474,-409,335,-13229
22.820099,-400,442,-13231
22.835724,-372,326,-12999
22.851349,-329,369,-13303
22.866974,-274,462,-13299
22.882599,-252,324,-12970
22.898224,-245,296,-13167
22.913849,-249,371,-13213
22.929474,-277,273,-12986
22.945099,-297,299,-13201
22.960724,-342,385,-13313
22.976349,-390,348,-13063
22.991974,-417,355,-13103
23.007599,-404,385,-13211
23.023224,-349,364,-13042
23.038849,-292,303,-13092
23.054474,-227,360,-13292
23.070099,-209,374,-13161
23.085724,-247,305,-13126
23.101349,-277,362,-13253
23.116974,-327,364,-13069
23.132599,-374,312,-13026
23.148224,-375,371,-13228
23.163849,-386,373,-13140
23.179474,-402,344,-13111
23.195099,-381,419,-13261
23.210724,-338,399,-13149
23.226349,-284,328,-13072
23.241974,-268,357,-13201
23.257599,-286,366,-13122
23.273224,-304,346,-13094
23.288849,-340,383,-13253
23.304474,-388,426,-13181
23.320099,-440,419,-13097
23.335724,-456,424,-13181
23.351349,-443,403,-13117
23.366974,-429,355,-13042
23.382599,-390,383,-13170
23.398224,-345,417,-13197
23.413849,-325,374,-13133
23.429474,-325,369,-13229
23.445099,-345,426,-13201
23.460724,-402,399,-13031
23.476349,-438,396,-13133
23.491974,-445,462,-13206
23.507599,-468,417,-13086
23.523224,-467,401,-13208
23.538849,-415,462,-13270
23.554474,-390,401,-13067
23.570099,-379,351,-13120
23.585724,-343,401,-13204
23.601349,-333,351,-13072
23.616974,-338,344,-13149
23.632599,-375,446,-13256
23.648224,-422,435,-13144
23.663849,-434,430,-13149
23.679474,-458,458,-13195
23.695099,-436,426,-13097
23.710724,-397,392,-13074
23.726349,-381,389,-13170
23.741974,-340,403,-13199
23.757599,-317,387,-13163
23.773224,-313,367,-13199
23.788849,-320,374,-13194
23.804474,-359,357,-13104
23.820099,-393,378,-13120
23.835724,-415,433,-13160
23.851349,-418,419,-13153
23.866974,-395,407,-13197
23.882599,-379,412,-13194
23.898224,-350,367,-13136
23.913849,-293,332,-13149
23.929474,-274,344,-13128
23.945099,-311,326,-13115
23.960724,-268,358,-13208
23.976349,-218,439,-13097
23.991974,-254,366,-12988
24.007599,-224,339,-13190
24.023224,-145,339,-13195
24.038849,-93,230,-13106
24.054474,-56,283,-13297
24.070099,-84,341,-13429
24.085724,-188,387,-13456
24.101349,-361,544,-13372
24.116974,-595,489,-13111
24.132599,-686,574,-12828
24.148224,-577,594,-12651
24.163849,-431,396,-13019
24.179474,-211,439,-13567
24.195099,-15,399,-13649
24.210724,137,680,-13381
24.226349,171,496,-12815
24.241974,-74,-93,-12499
24.257599,-354,189,-12633
24.273224,-479,407,-12920
24.288849,-358,526,-13519
24.304474,-104,687,-13870
24.320099,-193,640,-13615
24.335724,-461,644,-13311
24.351349,-622,623,-13095
24.366974,-754,701,-13006
24.382599,-686,769,-13199
24.398224,-565,773,-13417
24.413849,-370,569,-13331
24.429474,-129,257,-13056
24.445099,-234,380,-13019
24.460724,-329,457,-13119
24.476349,-358,398,-12931
24.491974,-515,573,-12901
24.507599,-461,366,-13208
24.523224,-392,421,-13261
24.538849,-159,669,-13199
24.554474,-429,303,-13199
24.570099,-1570,1523,-13278
24.585724,-1163,2078,-13365
24.601349,-250,507,-13170
24.616974,-584,519,-13069
24.632599,-574,790,-13188
24.648224,-297,464,-13240
24.663849,-372,566,-12947
24.679474,-383,357,-12708
24.695099,-249,332,-13167
24.710724,-195,583,-13594
24.726349,-125,603,-13536
24.741974,-170,364,-13160
24.757599,-579,421,-12790
24.773224,-700,996,-12874
24.788849,-333,739,-13110
24.804474,-208,305,-13351
24.820099,-315,769,-13447
24.835724,-208,807,-13383
24.851349,-2,42,-13258
24.866974,-245,-79,-12683
24.882599,-372,408,-12408
24.898224,44,33,-12978
24.913849,78,-70,-13501
24.929474,-333,773,-13706
24.945099,-716,1012,-13549
24.960724,-858,853,-13081
24.976349,-684,778,-12845
24.991974,-499,585,-12995
25.007599,-349,580,-13195
25.023224,-183,605,-13365
25.038849,-265,673,-13478
25.054474,-549,912,-13283
25.070099,-588,794,-13079
25.085724,-395,562,-13045
25.101349,-284,546,-12979
25.116974,-193,432,-12994
25.132569,-120,437,-13165
25.148194,-177,566,-13379
25.163819,-320,615,-13386
25.179444,-467,649,-13099
25.195069,-520,628,-12956
25.210694,-481,615,-13054
25.226319,-427,603,-13060
25.241944,-470,591,-13015
; 25 stopping logging: shutdown: switched off
