;Title, http://www.gcdataconcepts.com, x2-2,Kionix KXRB5-2050
;Version, 1102, Build date, Oct  6 2015,  SN:CCDC10023F56AE8
;Start_time, 2007-01-05, 20:59:40.782
;Temperature, -999.00, deg C,  Vbat, 4158, mv
;Gain, high
;SampleRate, 64,Hz
;Deadband, 0, counts
;DeadbandTimeout, 0,sec
;Headers, time,Ax,Ay,Az
0.366547,389,-263,-13344
0.382172,374,-315,-13320
0.397797,328,-325,-13024
0.413422,217,-365,-13053
0.429047,207,-361,-13083
0.444672,287,-292,-13038
0.460297,298,-283,-13283
0.491547,344,-261,-13322
0.507172,342,-254,-13197
0.522797,219,-331,-13204
0.538422,217,-368,-13040
0.554047,228,-400,-12994
0.569672,219,-383,-13113
0.585297,323,-263,-13165
0.600922,341,-211,-13308
0.616547,333,-199,-13270
0.632172,344,-240,-13172
0.647797,237,-352,-13174
0.663422,207,-361,-12995
0.679047,214,-352,-13044
0.694672,216,-347,-13210
0.710297,335,-265,-13160
0.725922,346,-292,-13311
0.741547,317,-324,-13279
0.757172,344,-302,-13076
0.772797,221,-377,-13154
0.788422,217,-340,-13024
0.804047,303,-284,-13044
0.819672,266,-315,-13319
0.835297,353,-247,-13181
0.850922,348,-286,-13213
0.866547,241,-365,-13279
0.882172,298,-345,-12994
0.897797,266,-436,-13074
0.913422,251,-436,-13144
0.929047,366,-324,-13069
0.944672,351,-311,-13299
0.960297,358,-256,-13286
0.975922,371,-250,-13138
0.991547,283,-361,-13151
1.007172,278,-408,-13065
1.022797,283,-433,-13078
1.038422,294,-392,-13131
1.054047,378,-315,-13179
1.069672,380,-347,-13313
1.085297,382,-361,-13195
1.100922,383,-361,-13103
1.116669,289,-413,-13170
1.132294,305,-381,-12997
1.147919,348,-359,-13076
1.163544,323,-367,-13333
1.179169,407,-290,-13165
1.194794,392,-318,-13194
1.210419,308,-399,-13303
1.226044,358,-375,-12997
1.241669,317,-418,-13026
1.257294,282,-447,-13219
1.272919,385,-356,-13085
1.288544,378,-325,-13197
1.304169,360,-308,-13331
1.319794,391,-297,-13160
1.335419,324,-358,-13085
1.351044,294,-377,-13111
1.366669,299,-400,-13128
1.382294,321,-399,-13081
1.397919,380,-343,-13153
1.413544,348,-352,-13354
1.429169,355,-333,-13179
1.444794,364,-331,-13054
1.460419,248,-417,-13251
1.476044,287,-352,-13067
1.491669,335,-288,-13010
1.507294,266,-349,-13322
1.522919,344,-302,-13224
1.538544,367,-290,-13119
1.554169,273,-365,-13254
1.569794,274,-349,-13138
1.585419,266,-374,-13029
1.601044,260,-390,-13110
1.616669,285,-324,-13195
1.632294,305,-290,-13201
1.647919,349,-267,-13181
1.663544,319,-304,-13269
1.679169,282,-352,-13172
1.694794,294,-336,-13015
1.710419,249,-367,-13174
1.726044,264,-356,-13169
1.741669,323,-293,-13076
1.757294,285,-331,-13288
1.772919,298,-338,-13256
1.788544,317,-318,-13070
1.804169,235,-356,-13142
1.819794,242,-333,-13138
1.835419,283,-302,-13083
1.851044,285,-290,-13156
1.866669,326,-279,-13228
1.882294,335,-320,-13228
1.897919,312,-349,-13145
1.913544,280,-363,-13119
1.929169,226,-395,-13156
1.944794,262,-359,-13083
1.960419,317,-315,-13113
1.976044,287,-324,-13279
1.991669,314,-283,-13190
2.007294,337,-288,-13140
2.022919,287,-350,-13240
2.038544,296,-350,-13097
2.054169,298,-363,-13060
2.069794,298,-363,-13185
2.085419,342,-320,-13169
2.101044,332,-324,-13194
2.116547,323,-325,-13201
2.132172,321,-340,-13172
2.147797,287,-370,-13156
2.163422,294,-329,-13065
2.179047,273,-311,-13158
2.194672,249,-302,-13231
2.210297,310,-243,-13104
2.225922,307,-272,-13224
2.241547,260,-313,-13240
2.257172,285,-300,-13029
2.272797,246,-359,-13163
2.288422,233,-340,-13185
2.304047,308,-256,-13076
2.319672,287,-272,-13253
2.335297,307,-245,-13192
2.350922,321,-247,-13120
2.366547,251,-311,-13226
2.382172,298,-295,-13069
2.397797,312,-333,-13086
2.413422,276,-354,-13220
2.429047,339,-281,-13115
2.444672,330,-297,-13194
2.460297,321,-322,-13235
2.475922,342,-292,-13111
2.491547,264,-308,-13154
2.507172,269,-313,-13136
2.522797,301,-302,-13126
2.538422,274,-268,-13183
2.554047,321,-227,-13163
2.569672,321,-272,-13224
2.585297,310,-274,-13149
2.600922,308,-263,-13079
2.616547,249,-313,-13190
2.632172,307,-281,-13081
2.647797,333,-250,-13138
2.663422,269,-261,-13322
2.679047,319,-186,-13110
2.694672,292,-192,-13145
2.710297,249,-252,-13270
2.725922,328,-209,-13022
2.741547,299,-236,-13115
2.757172,312,-279,-13263
2.772797,410,-240,-13101
2.788422,374,-267,-13206
2.804047,353,-267,-13258
2.819672,382,-215,-13090
2.835297,341,-256,-13153
2.850922,326,-247,-13181
2.866547,337,-186,-13099
2.882172,349,-215,-13165
2.897797,392,-224,-13224
2.913422,398,-197,-13188
2.929047,378,-215,-13138
2.944672,358,-224,-13120
2.960297,341,-222,-13140
2.975922,358,-208,-13119
2.991547,385,-195,-13163
3.007172,403,-217,-13229
3.022797,435,-195,-13138
3.038422,437,-222,-13185
3.054047,391,-245,-13204
3.069672,376,-163,-13040
3.085297,389,-181,-13160
3.100922,403,-183,-13217
3.116547,417,-92,-13094
3.132172,407,-136,-13233
3.147797,416,-172,-13197
3.163422,419,-133,-13069
3.179047,416,-172,-13185
3.194672,471,-175,-13124
3.210297,494,-158,-13142
3.225922,466,-136,-13254
3.241547,458,-56,-13115
3.257172,457,-113,-13176
3.272797,467,-167,-13215
3.288422,483,-99,-13061
3.304047,471,-133,-13186
3.319672,480,-125,-13204
3.335297,492,-65,-13099
3.350922,501,-100,-13201
3.366547,516,-90,-13176
3.382172,503,-86,-13122
3.397797,494,-111,-13149
3.413422,491,-50,-13124
3.429047,489,-40,-13151
3.444672,523,-43,-13129
3.460297,539,-29,-13158
3.475922,548,-79,-13219
3.491547,557,-68,-13092
3.507172,514,-52,-13122
3.522797,499,-58,-13213
3.538422,521,17,-13097
3.554047,517,41,-13151
3.569672,533,16,-13242
3.585297,578,26,-13133
3.600922,583,-9,-13149
3.616547,562,-17,-13170
3.632172,576,26,-13106
3.647797,569,30,-13167
3.663422,537,85,-13172
3.679047,562,105,-13156
3.694672,589,46,-13203
3.710297,592,55,-13133
3.725922,601,55,-13161
3.741547,596,60,-13201
3.757172,605,128,-13104
3.772797,596,142,-13195
3.788422,571,148,-13204
3.804047,598,149,-13063
3.819672,633,92,-13174
3.835297,628,105,-13203
3.850922,603,148,-13101
3.866547,599,153,-13176
3.882172,594,208,-13167
3.897797,592,210,-13113
3.913422,621,167,-13156
3.929047,624,203,-13144
3.944672,642,216,-13167
3.960297,662,221,-13165
3.975922,615,271,-13128
3.991547,614,262,-13160
4.007172,646,253,-13129
4.022797,639,251,-13165
4.038422,644,244,-13217
4.054047,642,283,-13129
4.069672,614,292,-13154
4.085297,655,278,-13181
4.100922,680,317,-13101
4.116547,632,358,-13145
4.132172,623,358,-13190
4.147797,646,353,-13154
4.163422,664,337,-13140
4.179047,673,314,-13131
4.194672,669,337,-13174
4.210297,619,398,-13181
4.225922,566,430,-13115
4.241547,585,426,-13129
4.257172,640,392,-13144
4.272797,665,369,-13117
4.288422,655,428,-13186
4.304047,633,491,-13229
4.319672,585,498,-13140
4.335297,553,464,-13086
4.350922,574,428,-13086
4.366547,583,453,-13111
4.382172,594,498,-13210
4.397797,612,512,-13261
4.413422,603,510,-13179
4.429047,596,505,-13067
4.444672,553,546,-13097
4.460297,523,596,-13192
4.475922,517,617,-13149
4.491547,521,599,-13145
4.507172,576,537,-13192
4.522797,549,548,-13111
4.538422,499,633,-13167
4.554047,528,655,-13249
4.569672,498,612,-13101
4.585297,505,605,-13088
4.600922,521,658,-13163
4.616547,439,719,-13120
4.632172,485,708,-13203
4.647797,519,685,-13244
4.663422,423,703,-13136
4.679047,416,710,-13113
4.694672,417,707,-13101
4.710297,416,705,-13122
4.725922,457,730,-13206
4.741547,423,776,-13186
4.757172,423,767,-13169
4.772797,444,726,-13160
4.788422,371,742,-13117
4.804047,358,810,-13192
4.819672,351,826,-13170
4.835297,337,764,-13097
4.850922,421,755,-13181
4.866547,369,805,-13174
4.882172,326,812,-13183
4.897797,410,776,-13222
4.913422,323,792,-13110
4.929047,276,890,-13158
4.944672,346,860,-13208
4.960297,289,760,-13088
4.975922,271,849,-13178
4.991547,287,923,-13256
5.007172,269,801,-13140
5.022797,296,742,-13144
5.038422,253,849,-13181
5.054047,210,898,-13144
5.069672,248,848,-13160
5.085297,237,851,-13172
5.100922,207,898,-13145
5.116547,189,874,-13153
5.132172,171,864,-13204
5.147797,158,926,-13194
5.163422,142,874,-13140
5.179047,148,807,-13151
5.194672,155,882,-13183
5.210297,142,889,-13201
5.225922,121,833,-13204
5.241547,117,905,-13185
5.257172,128,912,-13188
5.272797,105,839,-13158
5.288422,58,885,-13083
5.304047,78,880,-13103
5.319672,89,849,-13156
5.335297,71,896,-13136
5.350922,105,860,-13165
5.366547,96,855,-13211
5.382172,101,848,-13154
5.397797,126,776,-13147
5.413422,71,823,-13183
5.429047,62,864,-13140
5.444672,101,849,-13149
5.460297,108,828,-13170
5.475922,116,778,-13126
5.491547,105,783,-13117
5.507172,105,787,-13147
5.522797,128,773,-13149
5.538422,135,796,-13138
5.554047,166,774,-13201
5.569672,219,724,-13253
5.585297,216,714,-13158
5.600922,207,735,-13133
5.616547,203,749,-13254
5.632172,176,710,-13199
5.647797,207,701,-13117
5.663422,228,749,-13172
5.679047,232,714,-13083
5.694672,307,683,-13054
5.710297,342,707,-13151
5.725922,376,683,-13097
5.741547,433,685,-13144
5.757172,432,683,-13233
5.772797,460,642,-13101
5.788422,483,642,-13095
5.804047,485,657,-13194
5.819672,567,642,-13178
5.835297,576,608,-13154
5.850922,532,628,-13058
5.866547,630,687,-13060
5.882172,678,653,-13206
5.897797,674,667,-13179
5.913422,767,753,-13126
5.929047,821,682,-13210
5.944672,839,624,-13147
5.960297,858,715,-13110
5.975922,874,724,-13226
5.991547,919,683,-13079
6.007172,953,714,-13003
6.022797,1017,730,-13167
6.038422,1087,771,-13170
6.054047,1132,771,-13231
6.069672,1224,751,-13269
6.085297,1256,835,-13204
6.100922,1240,835,-13245
6.116547,1348,828,-13172
6.132172,1399,862,-13215
6.147797,1358,890,-13199
6.163422,1430,1035,-12944
6.179047,1523,1042,-13181
6.194672,1560,987,-13236
6.210297,1587,1099,-12985
6.225922,1587,1078,-13292
6.241547,1614,1087,-13278
6.257172,1658,1196,-12954
6.272797,1683,1219,-13149
6.288422,1774,1281,-13267
6.304047,1817,1262,-13106
6.319672,1755,1281,-13044
6.335297,1821,1408,-13140
6.350922,1903,1431,-13153
6.366547,1869,1485,-13044
6.382172,1924,1505,-13188
6.397797,1953,1494,-13181
6.413422,1876,1624,-12999
6.429047,1939,1698,-13138
6.444672,1985,1710,-13149
6.460297,1958,1773,-13045
6.475922,2008,1817,-13163
6.491547,1994,1871,-13176
6.507172,1956,1892,-13053
6.522797,1987,1919,-13088
6.538422,1996,2015,-13133
6.554047,1997,2044,-13120
6.569672,2008,2062,-13199
6.585297,1996,2105,-13190
6.600922,1976,2103,-13181
6.616547,1955,2144,-13199
6.632172,1903,2158,-13094
6.647797,1908,2162,-13129
6.663422,1926,2231,-13147
6.679047,1892,2271,-13092
6.694672,1905,2305,-13190
6.710297,1869,2308,-13161
6.725922,1830,2290,-13099
6.741547,1858,2342,-13158
6.757172,1837,2333,-13095
6.772797,1806,2321,-13076
6.788422,1794,2387,-13176
6.804047,1751,2367,-13176
6.819672,1728,2356,-13169
6.835297,1735,2367,-13195
6.850922,1714,2326,-13160
6.866547,1710,2358,-13170
6.882172,1764,2356,-13165
6.897797,1728,2296,-13131
6.913422,1680,2314,-13199
6.929047,1719,2310,-13208
6.944672,1712,2319,-13206
6.960297,1676,2296,-13169
6.975922,1685,2180,-13019
6.991547,1705,2185,-13061
7.007172,1740,2197,-13151
7.022797,1780,2131,-13161
7.038422,1796,2164,-13231
7.054047,1837,2174,-13206
7.069672,1855,2133,-13181
7.085297,1858,2115,-13179
7.100922,1928,2080,-13104
7.116547,1964,2112,-13229
7.132172,1974,2089,-13247
7.147797,2024,2012,-13083
7.163422,2101,2065,-13204
7.179047,2164,2042,-13244
7.194672,2208,2005,-13069
7.210297,2272,2042,-13099
7.225922,2339,2039,-13197
7.241547,2412,2042,-13061
7.257172,2446,2017,-12949
7.272797,2458,2031,-13149
7.288422,2519,2115,-13278
7.304047,2605,2135,-13079
7.319672,2676,2119,-12990
7.335297,2713,2199,-13244
7.350922,2799,2297,-13311
7.366547,2899,2267,-13156
7.382172,2946,2272,-13213
7.397797,3006,2378,-13163
7.413422,3040,2449,-13070
7.429047,3076,2430,-13176
7.444672,3160,2521,-13095
7.460297,3199,2644,-13158
7.475922,3210,2637,-13363
7.491547,3254,2726,-13124
7.507172,3322,2756,-13001
7.522797,3371,2756,-13122
7.538422,3354,2924,-13053
7.554047,3360,3003,-13085
7.569672,3385,3055,-13228
7.585297,3404,3140,-13213
7.600922,3419,3133,-13128
7.616547,3399,3199,-13161
7.632172,3435,3269,-13201
7.647797,3444,3281,-13119
7.663422,3399,3372,-13108
7.679047,3390,3412,-13103
7.694672,3340,3426,-13056
7.710297,3331,3510,-13140
7.725922,3358,3553,-13163
7.741547,3301,3592,-13106
7.757172,3294,3635,-13179
7.772797,3265,3604,-13188
7.788422,3192,3606,-13122
7.804047,3244,3665,-13206
7.819672,3194,3647,-13178
7.835297,3088,3626,-13056
7.850922,3137,3672,-13126
7.866547,3097,3649,-13136
7.882172,3031,3626,-13074
7.897797,3071,3647,-13124
7.913422,3024,3599,-13124
7.929047,3021,3603,-13163
7.944672,3097,3597,-13178
7.960297,3067,3522,-13070
7.975922,3046,3521,-13104
7.991547,3072,3485,-13172
8.007172,3142,3426,-13163
8.022797,3167,3415,-13142
8.038422,3140,3358,-13131
8.054047,3201,3331,-13144
8.069672,3265,3346,-13161
8.085297,3342,3308,-13185
8.100922,3388,3263,-13169
8.116547,3401,3242,-13136
8.132172,3510,3246,-13088
8.147797,3574,3272,-13135
8.163422,3621,3287,-13213
8.179047,3756,3308,-13145
8.194672,3772,3299,-13153
8.210297,3795,3281,-13119
8.225922,3945,3344,-12972
8.241547,3965,3388,-13060
8.257172,4051,3422,-13094
8.272797,4208,3481,-13070
8.288422,4197,3497,-13290
8.304047,4245,3585,-13236
8.319672,4317,3658,-13097
8.335297,4335,3597,-13149
8.350922,4385,3665,-13106
8.366547,4449,3801,-13204
8.382172,4563,3858,-13211
8.397797,4610,3917,-13085
8.413422,4563,3992,-13115
8.429047,4576,4076,-13044
8.444672,4636,4124,-13038
8.460297,4656,4204,-13160
8.475922,4656,4315,-13142
8.491547,4688,4353,-13119
8.507172,4645,4358,-13079
8.522797,4606,4411,-13031
8.538422,4647,4506,-13095
8.554047,4583,4578,-13094
8.569672,4520,4619,-13049
8.585297,4579,4667,-13133
8.600922,4544,4699,-13174
8.616547,4465,4729,-13149
8.632172,4447,4747,-13147
8.647797,4367,4736,-13113
8.663422,4322,4772,-13131
8.679047,4338,4776,-13117
8.694672,4326,4722,-13097
8.710297,4299,4754,-13186
8.725922,4258,4765,-13149
8.741547,4262,4711,-13085
8.757172,4242,4688,-13185
8.772797,4228,4656,-13174
8.788422,4260,4586,-13076
8.804047,4242,4542,-13131
8.819672,4278,4517,-13149
8.835297,4297,4469,-13061
8.850922,4292,4467,-13124
8.866547,4367,4440,-13154
8.882172,4417,4367,-13072
8.897797,4479,4340,-13126
8.913422,4569,4322,-13226
8.929047,4590,4319,-13156
8.944672,4644,4336,-13063
8.960297,4728,4317,-13136
8.975922,4786,4319,-13113
8.991547,4906,4376,-13033
9.007172,5001,4358,-13170
9.022797,5052,4342,-13220
9.038422,5147,4447,-13085
9.054047,5217,4483,-13054
9.069672,5274,4492,-13111
9.085297,5340,4619,-13113
9.100922,5438,4651,-13069
9.116669,5510,4670,-13063
9.132294,5511,4770,-13122
9.147919,5577,4794,-13074
9.163544,5617,4890,-12963
9.179169,5617,5020,-13110
9.194794,5688,5070,-13169
9.210419,5715,5142,-13035
9.226044,5745,5211,-13113
9.241669,5745,5338,-13103
9.257294,5693,5449,-13072
9.272919,5706,5456,-13178
9.288544,5668,5535,-13106
9.304169,5642,5638,-13044
9.319794,5647,5660,-13090
9.335419,5601,5697,-13135
9.351044,5622,5781,-13203
9.366669,5588,5792,-13167
9.382294,5501,5761,-13110
9.397919,5520,5815,-13185
9.413544,5467,5824,-13120
9.429169,5340,5783,-13036
9.444794,5310,5811,-13117
9.460419,5290,5776,-13085
9.476044,5261,5736,-13078
9.491669,5283,5760,-13113
9.507294,5331,5692,-13040
9.522919,5322,5672,-13063
9.538544,5317,5686,-13115
9.554169,5372,5602,-13072
9.569794,5404,5592,-13101
9.585419,5449,5565,-13120
9.601044,5502,5504,-13067
9.616669,5574,5506,-13092
9.632294,5681,5481,-13085
9.647919,5738,5504,-13070
9.663544,5815,5538,-13122
9.679169,5924,5519,-13153
9.694794,6013,5519,-13213
9.710419,6149,5552,-13158
9.726044,6295,5618,-13078
9.741669,6347,5717,-13217
9.757294,6434,5801,-13195
9.772919,6583,5876,-13153
9.788544,6659,5968,-13240
9.804169,6731,6040,-13086
9.819794,6843,6072,-13022
9.835419,6890,6170,-13074
9.851044,6904,6342,-13085
9.866669,7013,6479,-13154
9.882294,7097,6597,-13142
9.897919,7122,6695,-13090
9.913544,7168,6752,-13015
9.929169,7159,6863,-13020
9.944794,7158,7038,-13104
9.960419,7183,7142,-13079
9.976044,7158,7225,-13081
9.991669,7165,7293,-13099
10.007294,7156,7270,-13076
10.022919,7181,7358,-13113
10.038544,7220,7495,-13156
10.054169,7108,7499,-13124
10.069794,7093,7547,-13161
10.085419,7159,7602,-13208
10.101044,7047,7529,-13111
10.116547,7054,7561,-13131
10.132172,7133,7624,-13174
10.147797,7036,7540,-13040
10.163422,7056,7522,-13058
10.179047,7149,7545,-13104
10.194672,7154,7474,-12945
10.210297,7250,7427,-13019
10.225922,7338,7441,-13170
10.241547,7381,7415,-13079
10.257172,7524,7388,-13078
10.272797,7658,7418,-13067
10.288422,7750,7441,-13011
10.304047,7897,7450,-13104
10.319672,8050,7500,-13131
10.335297,8122,7586,-13197
10.350922,8254,7668,-13245
10.366547,8438,7783,-13106
10.382172,8516,7836,-13126
10.397797,8663,7854,-13179
10.413422,8813,8009,-13135
10.429047,8877,8118,-13156
10.444672,8986,8218,-13081
10.460297,9066,8445,-13101
10.475922,9115,8613,-13256
10.491547,9204,8763,-13133
10.507172,9266,8881,-13019
10.522797,9259,8900,-13095
10.538422,9281,8941,-13085
10.554047,9397,9125,-13101
10.569672,9368,9323,-13117
10.585297,9245,9414,-13088
10.600922,9229,9495,-13094
10.616547,9197,9459,-13044
10.632172,9223,9445,-13076
10.647797,9284,9656,-13149
10.663422,9266,9722,-13076
10.679047,9261,9595,-13099
10.694672,9270,9582,-13170
10.710297,9248,9588,-13117
10.725922,9241,9538,-13145
10.741547,9327,9536,-13124
10.757172,9402,9577,-13042
10.772797,9368,9588,-13111
10.788422,9420,9509,-13138
10.804047,9609,9416,-13099
10.819672,9777,9411,-13070
10.835297,9902,9491,-13003
10.850922,10029,9600,-13022
10.866547,10186,9641,-13120
10.882172,10313,9657,-13090
10.897797,10377,9750,-13144
10.913422,10504,9834,-13315
10.929047,10691,9891,-13192
10.944672,10836,10045,-12976
10.960297,10916,10248,-12969
10.975922,11007,10382,-13099
10.991547,11136,10536,-13081
11.007172,11225,10702,-12963
11.022797,11298,10786,-13103
11.038422,11330,10961,-13095
11.054047,11343,11132,-12978
11.069672,11421,11111,-13090
11.085297,11421,11254,-13042
11.100922,11396,11486,-13056
11.116547,11479,11548,-13206
11.132172,11470,11614,-13094
11.147797,11364,11627,-13053
11.163422,11261,11620,-13147
11.179047,11207,11662,-13142
11.194672,11268,11721,-13054
11.210297,11334,11736,-12974
11.225922,11354,11646,-13036
11.241547,11304,11609,-13085
11.257172,11345,11586,-13056
11.272797,11471,11561,-13083
11.288422,11561,11579,-13069
11.304047,11821,11546,-12949
11.319672,12018,11571,-12922
11.335297,12052,11625,-13011
11.350922,12257,11645,-12954
11.366547,12439,11716,-13015
11.382172,12469,11814,-13179
11.397797,12627,11966,-13047
11.413422,12812,12061,-13017
11.429047,12871,12109,-13151
11.444672,12978,12302,-13113
11.460297,13159,12430,-13047
11.475922,13293,12489,-12986
11.491547,13407,12650,-12935
11.507172,13477,12777,-13056
11.522797,13477,12980,-13108
11.538422,13519,13198,-13049
11.554047,13510,13343,-13053
11.569672,13462,13560,-13029
11.585297,13425,13623,-13038
11.600922,13309,13560,-13119
11.616547,13439,13632,-13151
11.632172,13548,13775,-13104
11.647797,13368,13776,-13188
11.663422,13350,13712,-13215
11.679047,13364,13780,-12997
11.694672,13360,13768,-12894
11.710297,13407,13616,-12970
11.725922,13484,13568,-12992
11.741547,13669,13578,-13024
11.757172,13755,13576,-13047
11.772797,13855,13610,-12940
11.788422,14018,13609,-13017
11.804047,14119,13603,-13126
11.819672,14292,13675,-12997
11.835297,14480,13791,-13083
11.850922,14637,13923,-13215
11.866547,14826,14091,-13131
11.882172,15007,14217,-13081
11.897797,15148,14346,-12994
11.913422,15200,14571,-12903
11.929047,15283,14710,-12974
11.944672,15437,14783,-13063
11.960297,15489,15003,-13015
11.975922,15501,15223,-13011
11.991547,15498,15307,-13042
12.007172,15516,15421,-12985
12.022797,15548,15566,-12986
12.038422,15433,15637,-13026
12.054047,15351,15671,-13106
12.069672,15342,15714,-13178
12.085297,15358,15739,-13124
12.100922,15382,15737,-13067
12.116547,15333,15685,-13028
12.132172,15385,15623,-12994
12.147797,15507,15574,-12994
12.163422,15574,15567,-12981
12.179047,15687,15639,-13003
12.194672,15883,15614,-12945
12.210297,16044,15582,-12928
12.225922,16169,15669,-12988
12.241547,16330,15744,-12892
12.257172,16398,15792,-12969
12.272797,16376,15983,-13117
12.288422,16382,16242,-13028
12.304047,16383,16287,-13038
12.319672,16380,16373,-12956
12.335297,16382,16599,-12769
12.350922,16382,16671,-12908
12.366547,16382,16667,-12944
12.382172,16382,16681,-12876
12.397797,16382,16678,-13056
12.413422,16382,16676,-13088
12.429047,16382,16678,-12938
12.444672,16382,16678,-12958
12.460297,16382,16678,-13081
12.475922,16382,16678,-13056
12.491547,16382,16678,-13104
12.507172,16382,16678,-13213
12.522797,16382,16678,-12951
12.538422,16382,16678,-12738
12.554047,16382,16678,-12874
12.569672,16382,16678,-12931
12.585297,16382,16678,-12899
12.600922,16382,16678,-12906
12.616547,16382,16678,-12951
12.632172,16382,16678,-12912
12.647797,16382,16678,-12963
12.663422,16382,16678,-13045
12.679047,16382,16678,-12985
12.694672,16382,16678,-13074
12.710297,16382,16678,-13106
12.725922,16382,16678,-12849
12.741547,16382,16678,-12713
12.757172,16382,16678,-12899
12.772797,16382,16678,-13010
12.788422,16382,16678,-13033
12.804047,16382,16678,-13090
12.819672,16382,16678,-13063
12.835297,16382,16678,-12920
12.850922,16382,16678,-12881
12.866547,16382,16678,-13104
12.882172,16382,16678,-13197
12.897797,16382,16678,-13060
12.913422,16382,16678,-13011
12.929047,16382,16678,-12822
12.944672,16382,16678,-12595
12.960297,16382,16678,-12888
12.975922,16382,16678,-13135
12.991547,16382,16678,-12995
13.007172,16382,16678,-12979
13.022797,16382,16678,-13019
13.038422,16382,16678,-12928
13.054047,16382,16678,-12913
13.069672,16382,16678,-12972
13.085297,16382,16678,-12915
13.100922,16382,16678,-12824
13.116547,16382,16678,-12770
13.132172,16382,16678,-12803
13.147797,16382,16678,-12922
13.163422,16382,16678,-13069
13.179047,16382,16678,-13069
13.194672,16382,16678,-12956
13.210297,16382,16678,-13001
13.225922,16382,16678,-13004
13.241547,16382,16678,-13086
13.257172,16382,16678,-13210
13.272797,16382,16678,-13065
13.288422,16382,16678,-12892
13.304047,16382,16678,-12706
13.319672,16382,16678,-12640
13.335297,16382,16678,-12951
13.350922,16382,16678,-13099
13.366547,16382,16678,-12960
13.382172,16382,16678,-12981
13.397797,16382,16678,-12967
13.413422,16382,16678,-12970
13.429047,16382,16678,-13024
13.444672,16382,16678,-12917
13.460297,16382,16678,-12783
13.475922,16382,16678,-12760
13.491547,16382,16678,-12779
13.507172,16382,16678,-12929
13.522797,16382,16678,-13167
13.538422,16382,16678,-13120
13.554047,16382,16678,-13078
13.569672,16382,16678,-13038
13.585297,16382,16678,-12824
13.600922,16382,16678,-12931
13.616547,16382,16678,-13072
13.632172,16382,16678,-12926
13.647797,16382,16678,-12806
13.663422,16382,16678,-12633
13.679047,16382,16678,-12710
13.694672,16382,16678,-13081
13.710297,16382,16678,-13051
13.725922,16382,16678,-12910
13.741547,16382,16678,-13011
13.757172,16382,16678,-12854
13.772797,16382,16678,-12819
13.788422,16382,16678,-12956
13.804047,16382,16678,-12667
13.819672,16382,16678,-12649
13.835297,16382,16678,-12908
13.850922,16382,16678,-12931
13.866547,16382,16678,-12958
13.882172,16382,16678,-13058
13.897797,16382,16678,-13183
13.913422,16382,16678,-13031
13.929047,16382,16678,-12904
13.944672,16382,16678,-13213
13.960297,16382,16678,-12947
13.975922,16382,16678,-12558
13.991547,16382,16678,-12860
14.007172,16382,16678,-12858
14.022797,16382,16678,-12947
14.038422,16382,16678,-13056
14.054047,16382,16678,-12845
14.069672,16382,16678,-13088
14.085297,16382,16678,-13288
14.100922,16382,16678,-13067
14.116547,16382,16678,-12826
14.132172,16382,16678,-12654
14.147797,16382,16678,-12683
14.163422,16382,16678,-12845
14.179047,16382,16678,-13070
14.194672,16382,16678,-13276
14.210297,16382,16678,-13179
14.225922,16382,16678,-13019
14.241547,16382,16678,-13090
14.257172,16382,16678,-13040
14.272797,16382,16678,-12954
14.288422,16382,16678,-13040
14.304047,16382,16678,-12913
14.319672,16382,16678,-12654
14.335297,16382,16678,-12667
14.350922,16382,16678,-12944
14.366547,16382,16678,-13135
14.382172,16382,16678,-13117
14.397797,16382,16678,-13042
14.413422,16382,16678,-13054
14.429047,16382,16678,-13022
14.444672,16382,16678,-12685
14.460297,16382,16678,-12419
14.475922,16382,16678,-12597
14.491547,16382,16678,-12972
14.507172,16382,16678,-13261
14.522797,16382,16678,-13206
14.538422,16382,16678,-13111
14.554047,16382,16678,-13179
14.569672,16382,16678,-13045
14.585297,16382,16678,-12969
14.600922,16382,16678,-12953
14.616547,16382,16678,-12781
14.632172,16382,16678,-12751
14.647797,16382,16678,-12760
14.663422,16382,16678,-12858
14.679047,16382,16678,-13161
14.694672,16382,16678,-13138
14.710297,16382,16678,-13053
14.725922,16382,16678,-13256
14.741547,16382,16678,-13019
14.757172,16382,16678,-12563
14.772797,16382,16678,-12524
14.788422,16382,16678,-12610
14.804047,16382,16678,-12903
14.819672,16382,16678,-13297
14.835297,16382,16678,-13306
14.850922,16382,16678,-13203
14.866547,16382,16678,-13126
14.882172,16382,16678,-12940
14.897797,16382,16678,-12806
14.913422,16382,16678,-12799
14.929047,16382,16678,-12853
14.944672,16382,16678,-12815
14.960297,16382,16678,-12719
14.975922,16382,16678,-12919
14.991547,16382,16678,-13172
15.007172,16382,16678,-13119
15.022797,16382,16678,-13167
15.038422,16382,16678,-13140
15.054047,16382,16678,-12745
15.069672,16382,16678,-12429
15.085297,16382,16678,-12462
15.100922,16382,16678,-12792
15.116547,16382,16678,-13165
15.132172,16382,16678,-13361
15.147797,16382,16678,-13399
15.163422,16382,16678,-13226
15.179047,16382,16678,-12961
15.194672,16382,16678,-12792
15.210297,16382,16678,-12720
15.225922,16382,16678,-12783
15.241547,16382,16678,-12919
15.257172,16382,16678,-12883
15.272797,16382,16678,-12783
15.288422,16382,16678,-13053
15.304047,16382,16678,-13111
15.319672,16382,16678,-13001
15.335297,16382,16678,-13120
15.350922,16382,16678,-12662
15.366547,16382,16678,-12395
15.382172,16382,16678,-12660
15.397797,16382,16678,-12879
15.413422,16382,16678,-13360
15.429047,16382,16678,-13681
15.444672,16382,16678,-13599
15.460297,16382,16678,-13374
15.475922,16382,16678,-13135
15.491547,16382,16678,-12967
15.507172,16382,16678,-12849
15.522797,16382,16678,-12942
15.538422,16382,16678,-13215
15.554047,16382,16678,-13108
15.569672,16382,16678,-13051
15.585297,16382,16678,-13528
15.600922,16382,16678,-13479
15.616547,16382,16678,-13183
15.632172,16382,16678,-13186
15.647797,16382,16678,-12763
15.663422,16382,16678,-12658
15.679047,16382,16678,-13099
15.694672,16382,16678,-13288
15.710297,16382,16678,-13492
15.725922,16382,16678,-13620
15.741547,16382,16678,-13479
15.757172,16382,16678,-13292
15.772797,16382,16678,-13111
15.788422,16382,16678,-13067
15.804047,16382,16678,-13004
15.819672,16382,16678,-12929
15.835297,16382,16678,-13070
15.850922,16382,16678,-13074
15.866547,16382,16678,-13201
15.882172,16382,16678,-13590
15.897797,16382,16678,-13453
15.913422,16382,16678,-13260
15.929047,16382,16678,-13144
15.944672,16382,16678,-12690
15.960297,16382,16678,-12749
15.975922,16382,16678,-13115
15.991547,16382,16678,-13342
16.007172,16382,16678,-13644
16.022797,16382,16678,-13570
16.038422,16382,16678,-13290
16.054047,16382,16678,-13272
16.069672,16382,16678,-13188
16.085297,16382,16678,-13049
16.100922,16382,16678,-13063
16.116547,16382,16678,-13078
16.132172,16382,16678,-12972
16.147797,16382,16678,-12942
16.163422,16382,16678,-13242
16.179047,16382,16678,-13394
16.194672,16382,16678,-13286
16.210297,16382,16678,-13461
16.225922,16382,16678,-13331
16.241547,16382,16678,-12722
16.257172,16382,16678,-12738
16.272797,16382,16678,-13049
16.288422,16382,16678,-13142
16.304047,16382,16678,-13483
16.319672,16382,16678,-13656
16.335297,16382,16678,-13408
16.350922,16382,16678,-13285
16.366547,16382,16678,-13228
16.382172,16382,16678,-13095
16.397797,16382,16678,-13090
16.413422,16382,16678,-13067
16.429047,16382,16678,-12924
16.444672,16382,16678,-12953
16.460297,16382,16678,-13176
16.475922,16382,16678,-13324
16.491547,16382,16678,-13374
16.507172,16382,16678,-13390
16.522797,16382,16678,-13303
16.538422,16382,16678,-12994
16.554047,16382,16678,-12770
16.569672,16382,16678,-12865
16.585297,16382,16678,-13049
16.600922,16382,16678,-13310
16.616547,16382,16678,-13547
16.632172,16382,16678,-13463
16.647797,16382,16678,-13320
16.663422,16382,16678,-13328
16.679047,16382,16678,-13245
16.694672,16382,16678,-13160
16.710297,16382,16678,-13122
16.725922,16382,16678,-12994
16.741547,16382,16678,-12908
16.757172,16382,16678,-13070
16.772797,16382,16678,-13315
16.788422,16382,16678,-13326
16.804047,16382,16678,-13236
16.819672,16382,16678,-13290
16.835297,16382,16678,-13283
16.850922,16382,16678,-12942
16.866547,16382,16678,-12795
16.882172,16382,16678,-13001
16.897797,16382,16678,-13088
16.913422,16382,16678,-13331
16.929047,16382,16678,-13517
16.944672,16382,16678,-13342
16.960297,16382,16678,-13349
16.975922,16382,16678,-13358
16.991547,16382,16678,-13199
17.007172,16382,16678,-13226
17.022797,16382,16678,-13186
17.038422,16382,16678,-12990
17.054047,16382,16678,-12867
17.069672,16382,16678,-12995
17.085297,16382,16678,-13328
17.100922,16382,16678,-13324
17.116547,16382,16678,-13238
17.132172,16382,16678,-13424
17.147797,16382,16678,-13299
17.163422,16382,16678,-13022
17.179047,16382,16678,-12926
17.194672,16382,16678,-12833
17.210297,16382,16678,-12997
17.225922,16382,16678,-13319
17.241547,16382,16678,-13388
17.257172,16382,16678,-13383
17.272797,16382,16678,-13365
17.288422,16382,16678,-13253
17.304047,16382,16678,-13228
17.319672,16382,16678,-13286
17.335297,16382,16678,-13267
17.350922,16382,16678,-13133
17.366547,16382,16678,-12920
17.382172,16382,16678,-12862
17.397797,16382,16678,-13070
17.413422,16382,16678,-13258
17.429047,16382,16678,-13404
17.444672,16382,16678,-13449
17.460297,16382,16678,-13258
17.475922,16382,16678,-13247
17.491547,16382,16678,-13153
17.507172,16382,16678,-12862
17.522797,16382,16678,-12986
17.538422,16382,16678,-13215
17.554047,16382,16678,-13297
17.569672,16382,16678,-13336
17.585297,16382,16678,-13283
17.600922,16382,16678,-13245
17.616547,16382,16678,-13229
17.632172,16382,16678,-13299
17.647797,16382,16678,-13422
17.663422,16382,16678,-13295
17.679047,16382,16678,-13085
17.694672,16382,16678,-12920
17.710297,16382,16678,-12831
17.725922,16382,16678,-13136
17.741547,16382,16678,-13406
17.757172,16382,16678,-13308
17.772797,16382,16678,-13329
17.788422,16382,16678,-13381
17.804047,16382,16678,-13238
17.819672,16382,16678,-13119
17.835297,16382,16678,-12981
17.850922,16382,16678,-12953
17.866547,16382,16678,-13145
17.882172,16382,16678,-13233
17.897797,16382,16678,-13254
17.913422,16382,16678,-13306
17.929047,16382,16678,-13254
17.944672,16382,16678,-13220
17.960297,16382,16678,-13303
17.975922,16382,16678,-13369
17.991547,16382,16678,-13360
18.007172,16382,16678,-13270
18.022797,16382,16678,-13035
18.038422,16382,16678,-12829
18.054047,16382,16678,-12976
18.069672,16382,16678,-13269
18.085297,16382,16678,-13279
18.100922,16382,16678,-13240
18.116669,16382,16678,-13378
18.132294,16382,16678,-13324
18.147919,16382,16678,-13236
18.163544,16382,16678,-13229
18.179169,16382,16678,-12983
18.194794,16382,16678,-12963
18.210419,16382,16678,-13231
18.226044,16382,16678,-13276
18.241669,16382,16678,-13281
18.257294,16382,16678,-13292
18.272919,16382,16678,-13217
18.288544,16382,16678,-13238
18.304169,16382,16678,-13333
18.319794,16382,16678,-13408
18.335419,16382,16678,-13369
18.351044,16382,16678,-13226
18.366669,16382,16678,-13070
18.382294,16382,16678,-12892
18.397919,16382,16678,-12974
18.413544,16382,16678,-13276
18.429169,16382,16678,-13290
18.444794,16382,16678,-13235
18.460419,16382,16678,-13344
18.476044,16382,16678,-13242
18.491669,16382,16678,-13169
18.507294,16382,16678,-13345
18.522919,16382,16678,-13133
18.538544,16382,16678,-12917
18.554169,16382,16678,-13151
18.569794,16382,16678,-13081
18.585419,16382,16678,-13051
18.601044,16382,16678,-13390
18.616669,16382,16678,-13358
18.632294,16382,16678,-13199
18.647919,16382,16678,-13249
18.663544,16382,16678,-13278
18.679169,16382,16678,-13345
18.694794,16382,16678,-13356
18.710419,16382,16678,-13228
18.726044,16382,16678,-13054
18.741669,16382,16678,-12926
18.757294,16382,16678,-13019
18.772919,16382,16678,-13219
18.788544,16382,16678,-13347
18.804169,16382,16678,-13338
18.819794,16382,16678,-13156
18.835419,16382,16678,-13120
18.851044,16382,16678,-13278
18.866669,16382,16678,-13286
18.882294,16382,16678,-13231
18.897919,16382,16678,-13158
18.913544,16382,16678,-13024
18.929169,16382,16678,-13035
18.944794,16382,16678,-13176
18.960419,16382,16678,-13363
18.976044,16382,16678,-13478
18.991669,16382,16678,-13285
19.007294,16382,16678,-13099
19.022919,16382,16678,-13197
19.038544,16382,16678,-13292
19.054169,16382,16678,-13390
19.069794,16382,16678,-13436
19.085419,16382,16678,-13174
19.101044,16382,16678,-12892
19.116547,16382,16678,-12920
19.132172,16382,16678,-13138
19.147797,16382,16678,-13374
19.163422,16382,16678,-13408
19.179047,16382,16678,-13170
19.194672,16382,16678,-13149
19.210297,16382,16678,-13281
19.225922,16382,16678,-13285
19.241547,16382,16678,-13361
19.257172,16382,16678,-13208
19.272797,16382,16678,-12981
19.288422,16382,16678,-13026
19.304047,16382,16678,-12990
19.319672,16382,16678,-13210
19.335297,16382,16678,-13602
19.350922,16382,16678,-13445
19.366547,16382,16678,-13117
19.382172,16382,16678,-13054
19.397797,16382,16678,-13181
19.413422,16382,16678,-13388
19.429047,16382,16678,-13474
19.444672,16382,16678,-13410
19.460297,16382,16678,-13128
19.475922,16382,16678,-12792
19.491547,16382,16678,-12910
19.507172,16382,16678,-13210
19.522797,16382,16678,-13369
19.538422,16382,16678,-13483
19.554047,16382,16678,-13165
19.569672,16382,16678,-12919
19.585297,16382,16678,-13320
19.600922,16382,16678,-13390
19.616547,16382,16678,-13203
19.632172,16382,16678,-13306
19.647797,16382,16678,-13072
19.663422,16382,16678,-12813
19.679047,16382,16678,-13003
19.694672,16382,16678,-13238
19.710297,16382,16678,-13458
19.725922,16382,16678,-13470
19.741547,16382,16678,-13199
19.757172,16382,16678,-13031
19.772797,16382,16678,-13122
19.788422,16382,16678,-13354
19.804047,16382,16678,-13460
19.819672,16382,16678,-13429
19.835297,16382,16678,-13301
19.850922,16382,16678,-12970
19.866547,16382,16678,-12762
19.882172,16382,16678,-12995
19.897797,16382,16678,-13424
19.913422,16382,16678,-13497
19.929047,16382,16678,-13140
19.944672,16382,16678,-12958
19.960297,16382,16678,-13147
19.975922,16382,16678,-13254
19.991547,16382,16678,-13304
20.007172,16382,16678,-13433
20.022797,16382,16678,-13251
20.038422,16382,16678,-12906
20.054047,16382,16678,-12895
20.069672,16382,16678,-13085
20.085297,16382,16678,-13303
20.100922,16382,16678,-13544
20.116547,16382,16678,-13445
20.132172,16382,16678,-13024
20.147797,16382,16678,-12917
20.163422,16382,16676,-13185
20.179047,16382,16680,-13447
20.194672,16382,16678,-13608
20.210297,16382,16673,-13504
20.225922,16382,16687,-13174
20.241547,16382,16621,-12878
20.257172,16382,16524,-12812
20.272797,16382,16555,-13111
20.288422,16382,16544,-13431
20.304047,16382,16383,-13408
20.319672,16382,16142,-13065
20.335297,16382,15946,-12835
20.350922,16382,16019,-13236
20.366547,16382,16219,-13565
20.382172,16382,16155,-13295
20.397797,16382,16024,-13297
20.413422,16382,16139,-13344
20.429047,16382,16124,-12944
20.444672,16382,15955,-12915
20.460297,16382,16203,-13033
20.475922,16382,16526,-13079
20.491547,16383,16496,-13422
20.507172,16378,16467,-13406
20.522797,16385,16448,-13069
20.538422,16360,16369,-12992
20.554047,16265,16421,-13160
20.569672,16237,16514,-13433
20.585297,16226,16462,-13470
20.600922,16101,16330,-13351
20.616547,15928,16121,-13245
20.632172,15751,15907,-13008
20.647797,15599,15824,-12951
20.663422,15507,15744,-13090
20.679047,15530,15662,-13240
20.694672,15628,15517,-13360
20.710297,15707,15282,-13149
20.725922,15723,15123,-12919
20.741547,15666,15107,-13101
20.757172,15682,15101,-13399
20.772797,15828,15080,-13338
20.788422,15971,15123,-13151
20.804047,16014,14985,-13311
20.819672,16053,14966,-13335
20.835297,16028,15183,-13101
20.850922,15901,15196,-13110
20.866547,15946,15221,-13115
20.882172,16003,15303,-13131
20.897797,15964,15280,-13342
20.913422,15946,15258,-13374
20.929047,15817,15271,-13219
20.944672,15628,15332,-13167
20.960297,15483,15414,-13238
20.975922,15371,15428,-13272
20.991547,15273,15371,-13285
21.007172,15194,15294,-13349
21.022797,15025,15225,-13351
21.038422,14803,15164,-13301
21.054047,14712,14991,-13210
21.069672,14673,14757,-13078
21.085297,14601,14651,-13099
21.100922,14607,14544,-13185
21.116547,14632,14401,-13226
21.132172,14551,14321,-13286
21.147797,14548,14216,-13135
21.163422,14605,14134,-13006
21.179047,14650,14096,-13217
21.194672,14819,14021,-13269
21.210297,14925,13973,-13278
21.225922,14964,14009,-13429
21.241547,15046,14085,-13306
21.257172,15032,14116,-13133
21.272797,14983,14087,-13060
21.288422,14950,14109,-13024
21.304047,14975,14162,-13103
21.319672,15010,14228,-13240
21.335297,15014,14285,-13351
21.350922,14891,14355,-13244
21.366547,14650,14405,-13056
21.382172,14516,14350,-13085
21.397797,14423,14353,-13165
21.413422,14344,14391,-13240
21.429047,14301,14396,-13426
21.444672,14150,14342,-13428
21.460297,13960,14175,-13231
21.475922,13830,14044,-13170
21.491547,13685,13955,-13124
21.507172,13578,13864,-13063
21.522797,13591,13794,-13253
21.538422,13605,13626,-13388
21.554047,13562,13439,-13211
21.569672,13548,13298,-13044
21.585297,13537,13169,-13049
21.600922,13569,13105,-13194
21.616547,13678,13087,-13299
21.632172,13818,13084,-13260
21.647797,13891,13028,-13301
21.663422,13884,12886,-13326
21.679047,13889,12902,-13236
21.694672,13909,13046,-13208
21.710297,13959,13116,-13079
21.725922,14018,13130,-13099
21.741547,14044,13132,-13192
21.757172,14014,13187,-13140
21.772797,13948,13203,-13245
21.788422,13837,13285,-13226
21.804047,13703,13414,-13165
21.819672,13646,13396,-13201
21.835297,13587,13377,-13153
21.850922,13541,13360,-13199
21.866547,13434,13323,-13281
21.882172,13248,13360,-13344
21.897797,13137,13346,-13385
21.913422,12993,13228,-13288
21.929047,12812,13130,-13183
21.944672,12716,13019,-13156
21.960297,12662,12846,-13163
21.975922,12580,12748,-13186
21.991547,12525,12684,-13194
22.007172,12528,12493,-13224
22.022797,12548,12328,-13153
22.038422,12587,12253,-13053
22.054047,12593,12177,-13158
22.069672,12630,12116,-13281
22.085297,12755,12028,-13253
22.100922,12794,11982,-13251
22.116547,12807,11980,-13285
22.132172,12882,11968,-13208
22.147797,12919,12009,-13260
22.163422,12977,12078,-13308
22.179047,13053,12105,-13111
22.194672,12998,12116,-13110
22.210297,12941,12136,-13224
22.225922,12955,12170,-13172
22.241547,12912,12271,-13256
22.257172,12914,12311,-13283
22.272797,12873,12319,-13145
22.288422,12703,12387,-13136
22.304047,12589,12361,-13086
22.319672,12505,12359,-13095
22.335297,12373,12427,-13256
22.350922,12277,12380,-13336
22.366547,12187,12311,-13370
22.382172,12016,12253,-13281
22.397797,11882,12153,-13181
22.413422,11755,12050,-13190
22.429047,11646,11925,-13128
22.444672,11682,11786,-13203
22.460297,11627,11682,-13351
22.475922,11527,11577,-13188
22.491547,11559,11414,-13070
22.507172,11557,11275,-13160
22.522797,11577,11220,-13149
22.538422,11677,11191,-13172
22.554047,11725,11100,-13308
22.569672,11777,11048,-13229
22.585297,11839,11014,-13179
22.600922,11841,10945,-13340
22.616547,11920,11027,-13217
22.632172,11998,11079,-13111
22.647797,11971,11029,-13269
22.663422,11993,11073,-13226
22.679047,12034,11129,-13113
22.694672,12025,11184,-13110
22.710297,11995,11268,-13140
22.725922,11952,11309,-13215
22.741547,11891,11330,-13245
22.757172,11852,11362,-13201
22.772797,11780,11400,-13151
22.788422,11637,11466,-13201
22.804047,11539,11514,-13328
22.819672,11437,11471,-13326
22.835297,11334,11405,-13306
22.850922,11241,11370,-13322
22.866547,11079,11289,-13183
22.882172,10980,11211,-13199
22.897797,10907,11159,-13313
22.913422,10770,11063,-13197
22.929047,10682,10948,-13192
22.944672,10648,10809,-13258
22.960297,10625,10663,-13135
22.975922,10595,10538,-13119
22.991547,10596,10423,-13149
23.007172,10614,10345,-13163
23.022797,10641,10284,-13226
23.038422,10745,10216,-13190
23.054047,10789,10130,-13203
23.069672,10793,10072,-13169
23.085297,10868,10059,-13178
23.100922,10879,10045,-13306
23.116547,10927,10082,-13149
23.132172,11018,10086,-13197
23.147797,11043,10059,-13410
23.163422,11077,10159,-13129
23.179047,11064,10193,-13067
23.194672,11125,10164,-13161
23.210297,11095,10279,-13019
23.225922,10989,10332,-13245
23.241547,11034,10314,-13328
23.257172,10916,10405,-13115
23.272797,10811,10425,-13176
23.288422,10766,10405,-13126
23.304047,10625,10482,-13076
23.319672,10586,10502,-13290
23.335297,10489,10486,-13347
23.350922,10373,10507,-13310
23.366547,10284,10461,-13308
23.382172,10089,10327,-13226
23.397797,9998,10232,-13188
23.413422,9914,10164,-13208
23.429047,9795,10077,-13228
23.444672,9763,9998,-13229
23.460297,9695,9859,-13188
23.475922,9645,9718,-13185
23.491547,9627,9654,-13140
23.507172,9654,9518,-13063
23.522797,9661,9377,-13176
23.538422,9652,9347,-13258
23.554047,9748,9268,-13165
23.569672,9763,9165,-13204
23.585297,9782,9152,-13213
23.600922,9927,9095,-13179
23.616547,9927,9018,-13349
23.632172,9927,9086,-13281
23.647797,10054,9152,-13158
23.663422,10095,9090,-13336
23.679047,10080,9118,-13260
23.694672,10061,9223,-13185
23.710297,10075,9232,-13281
23.725922,10120,9243,-13192
23.741547,10098,9309,-13186
23.757172,10079,9368,-13206
23.772797,10077,9427,-13183
23.788422,9979,9486,-13253
23.804047,9850,9497,-13178
23.819672,9831,9472,-13063
23.835297,9804,9491,-13179
23.850922,9675,9561,-13281
23.866547,9531,9579,-13288
23.882172,9452,9520,-13313
23.897797,9347,9466,-13260
23.913422,9216,9438,-13242
23.929047,9109,9372,-13258
23.944672,8995,9282,-13185
23.960297,8900,9225,-13231
23.975922,8852,9134,-13288
23.991547,8829,8991,-13186
24.007172,8759,8861,-13195
24.022797,8707,8740,-13203
24.038422,8722,8640,-13120
24.054047,8709,8557,-13199
24.069672,8707,8484,-13288
24.085297,8759,8400,-13176
24.100922,8802,8300,-13135
24.116547,8809,8231,-13229
24.132172,8881,8236,-13113
24.147797,8997,8216,-13094
24.163422,9004,8143,-13338
24.179047,9040,8147,-13253
24.194672,9107,8157,-13079
24.210297,9102,8157,-13238
24.225922,9136,8245,-13206
24.241547,9150,8295,-13058
24.257172,9175,8234,-13242
24.272797,9188,8245,-13283
24.288422,9181,8354,-13069
24.304047,9231,8395,-13103
24.319672,9168,8452,-13245
24.335297,9072,8540,-13192
24.350922,9077,8543,-13224
24.366547,8977,8541,-13283
24.382172,8825,8557,-13131
24.397797,8800,8593,-13188
24.413422,8741,8604,-13301
24.429047,8656,8568,-13165
24.444672,8574,8574,-13169
24.460297,8393,8568,-13228
24.475922,8263,8507,-13163
24.491547,8195,8443,-13167
24.507172,8118,8388,-13251
24.522797,8032,8313,-13242
24.538422,7945,8188,-13140
24.554047,7927,8082,-13208
24.569672,7859,8015,-13226
24.585297,7775,7900,-13051
24.600922,7766,7831,-13163
24.616547,7777,7765,-13297
24.632172,7840,7615,-13147
24.647797,7836,7500,-13167
24.663422,7804,7429,-13206
24.679047,7850,7388,-13110
24.694672,7861,7363,-13195
24.710297,7940,7290,-13283
24.725922,8081,7229,-13190
24.741547,8091,7234,-13160
24.757172,8079,7245,-13253
24.772797,8127,7233,-13244
24.788422,8195,7256,-13169
24.804047,8224,7315,-13169
24.819672,8263,7311,-13206
24.835297,8341,7295,-13172
24.850922,8266,7349,-13178
24.866547,8199,7377,-13229
24.882172,8257,7461,-13092
24.897797,8290,7536,-13120
24.913422,8266,7536,-13272
24.929047,8170,7584,-13206
24.944672,8150,7558,-13186
24.960297,8056,7579,-13110
24.975922,7895,7706,-13094
24.991547,7908,7729,-13301
25.007172,7813,7700,-13260
25.022797,7716,7684,-13190
25.038422,7679,7640,-13247
25.054047,7481,7590,-13147
25.069672,7408,7608,-13197
25.085297,7375,7588,-13295
25.100922,7213,7484,-13174
25.116547,7149,7393,-13144
25.132172,7125,7295,-13233
25.147797,7033,7245,-13219
25.163422,6963,7199,-13153
25.179047,6927,7092,-13213
25.194672,6927,6975,-13242
25.210297,6925,6852,-13140
25.225922,6883,6767,-13117
25.241547,6883,6692,-13154
25.257172,6920,6620,-13181
25.272797,6942,6558,-13219
25.288422,6959,6493,-13201
25.304047,7009,6431,-13108
25.319672,7081,6374,-13113
25.335297,7109,6361,-13251
25.350922,7143,6372,-13258
25.366547,7233,6367,-13144
25.382172,7252,6313,-13213
25.397797,7272,6304,-13229
25.413422,7340,6352,-13119
25.429047,7342,6347,-13178
25.444672,7356,6418,-13183
25.460297,7363,6470,-13190
25.475922,7359,6465,-13235
25.491547,7393,6524,-13111
25.507172,7379,6511,-13131
25.522797,7333,6529,-13190
25.538422,7318,6626,-13095
25.554047,7286,6667,-13172
25.569672,7190,6727,-13274
25.585297,7145,6792,-13215
25.600922,7117,6799,-13167
25.616547,6995,6809,-13204
25.632172,6965,6824,-13299
25.647797,6900,6790,-13263
25.663422,6751,6781,-13206
25.679047,6711,6806,-13270
25.694672,6581,6726,-13178
25.710297,6477,6665,-13129
25.725922,6463,6656,-13231
25.741547,6331,6576,-13201
25.757172,6251,6522,-13228
25.772797,6243,6449,-13274
25.788422,6172,6349,-13204
25.804047,6061,6281,-13161
25.819672,6029,6156,-13111
25.835297,6047,6068,-13088
25.850922,6001,6033,-13204
25.866547,5988,5935,-13285
25.882172,6027,5826,-13179
25.897797,6010,5745,-13133
25.913422,6008,5677,-13156
25.929047,6063,5642,-13097
25.944672,6070,5626,-13169
25.960297,6118,5579,-13244
25.975922,6215,5499,-13135
25.991547,6226,5424,-13228
26.007172,6256,5413,-13299
26.022797,6345,5465,-13101
26.038422,6376,5445,-13163
26.054047,6377,5408,-13292
26.069672,6440,5449,-13169
26.085297,6488,5465,-13145
26.100922,6440,5485,-13304
26.116547,6440,5545,-13269
26.132172,6508,5602,-13072
26.147797,6497,5608,-13233
26.163422,6472,5610,-13272
26.179047,6483,5676,-13067
26.194672,6509,5692,-13169
26.210297,6442,5756,-13188
26.225922,6349,5865,-13183
26.241547,6386,5831,-13233
26.257172,6293,5815,-13065
26.272797,6195,5861,-13101
26.288422,6195,5872,-13258
26.304047,6083,5886,-13226
26.319672,6004,5917,-13231
26.335297,5895,5881,-13183
26.350922,5861,5772,-13129
26.366547,5895,5717,-13253
26.382172,5667,5727,-13279
26.397797,5520,5715,-13161
26.413422,5513,5599,-13128
26.429047,5422,5442,-13174
26.444672,5319,5354,-13154
26.460297,5140,5315,-13042
26.475922,5049,5327,-13147
26.491547,5086,5333,-13374
26.507172,5067,5244,-13345
26.522797,5031,5090,-13211
26.538422,4992,4917,-13085
26.554047,4944,4828,-12951
26.569672,4942,4856,-13079
26.585297,4983,4836,-13411
26.600922,5026,4747,-13410
26.616547,5031,4656,-13145
26.632172,5004,4540,-13053
26.647797,5047,4467,-13088
26.663422,5077,4508,-13213
26.679047,5142,4479,-13313
26.694672,5297,4326,-13199
26.710297,5299,4212,-13126
26.725922,5269,4149,-13179
26.741547,5319,4087,-13163
26.757172,5411,4040,-13110
26.772797,5477,3956,-13176
26.788422,5456,3853,-13292
26.804047,5488,3910,-13240
26.819672,5408,3851,-13190
26.835297,5269,3708,-13140
26.850922,5195,3719,-12969
26.866547,5149,3526,-13101
26.882172,5181,3387,-13294
26.897797,5124,3538,-13179
26.913422,4949,3585,-13281
26.929047,4811,3485,-13329
26.944672,4703,3401,-13013
26.960297,4547,3435,-13063
26.975922,4529,3417,-13331
26.991547,4522,3278,-13263
27.007172,4370,3213,-13156
27.022797,4212,3217,-13270
27.038422,4035,3151,-13208
27.054047,3895,3047,-13049
27.069672,3788,3051,-13135
27.085297,3660,3010,-13169
27.100922,3546,2947,-13199
27.116669,3454,2896,-13210
27.132294,3360,2788,-13169
27.147919,3203,2726,-13186
27.163544,3005,2667,-13153
27.179169,2946,2606,-13195
27.194794,2888,2521,-13210
27.210419,2722,2433,-13197
27.226044,2647,2446,-13263
27.241669,2508,2360,-13172
27.257294,2371,2240,-13178
27.272919,2369,2205,-13204
27.288544,2235,2049,-13019
27.304169,2140,1958,-13106
27.319794,2139,1937,-13244
27.335419,2053,1810,-13203
27.351044,1951,1728,-13235
27.366669,1903,1623,-13119
27.382294,1865,1483,-13011
27.397919,1814,1417,-13092
27.413544,1801,1326,-13190
27.429169,1717,1335,-13272
27.444794,1606,1339,-13306
27.460419,1639,1153,-13199
27.476044,1574,1176,-13226
27.491669,1474,1242,-13365
27.507294,1640,903,-13085
27.522919,1599,707,-12929
27.538544,1423,808,-13101
27.554169,1631,703,-13156
27.569794,1617,657,-13319
27.585419,1358,814,-13326
27.601044,1389,776,-13122
27.616669,1398,607,-13129
27.632294,1296,605,-13124
27.647919,1303,633,-13088
27.663544,1408,553,-13149
27.679169,1501,516,-13169
27.694794,1462,498,-13228
27.710419,1487,453,-13242
27.726044,1521,392,-13210
27.741669,1437,299,-13174
27.757294,1474,232,-12976
27.772919,1505,149,-13008
27.788544,1498,112,-13210
27.804169,1626,180,-13106
27.819794,1621,155,-13228
27.835419,1514,83,-13383
27.851044,1539,80,-13103
27.866669,1464,-11,-13067
27.882294,1360,-52,-13095
27.897919,1406,-8,-12963
27.913544,1408,-58,-13186
27.929169,1471,-52,-13240
27.944794,1531,-27,-13108
27.960419,1421,-38,-13263
27.976044,1378,-33,-13215
27.991669,1349,-109,-13122
28.007294,1280,-147,-13113
28.022919,1315,-142,-13004
28.038544,1301,-131,-13099
28.054169,1240,-31,-13176
28.069794,1256,-63,-13203
28.085419,1240,-124,-13188
28.101044,1198,-56,-13013
28.116547,1260,-167,-13160
28.132172,1349,-277,-13228
28.147797,1269,-217,-13006
28.163422,1221,-283,-13103
28.179047,1298,-302,-13167
28.194672,1290,-192,-13144
28.210297,1306,-247,-13338
28.225922,1346,-320,-13301
28.241547,1294,-358,-13104
28.257172,1198,-388,-13110
28.272797,1158,-370,-13056
28.288422,1215,-422,-13054
28.304047,1219,-411,-13219
28.319672,1149,-318,-13245
28.335297,1139,-343,-13222
28.350922,1110,-397,-13142
28.366547,1062,-384,-13022
28.382172,1098,-463,-13108
28.397797,1121,-534,-13163
28.413422,1107,-486,-13167
28.429047,1115,-463,-13267
28.444672,1087,-433,-13163
28.460297,1019,-415,-13138
28.475922,978,-440,-13228
28.491547,971,-447,-13038
28.507172,999,-511,-13081
28.522797,1001,-484,-13256
28.538422,923,-356,-13145
28.554047,833,-317,-13126
28.569672,749,-245,-13124
28.585297,676,-152,-13076
28.600922,658,-93,-13185
28.616547,639,33,-13283
28.632172,603,60,-13333
28.647797,573,-13,-13256
28.663422,528,-34,-13085
28.679047,564,-165,-13045
28.694672,605,-275,-12970
28.710297,591,-199,-12981
28.725922,619,-95,-13297
28.741547,615,10,-13408
28.757172,573,19,-13210
28.772797,576,-115,-13085
28.788422,574,-192,-12992
28.804047,585,-188,-13015
28.819672,619,-111,-13226
28.835297,607,-17,-13379
28.850922,578,-6,-13295
28.866547,526,-42,-13054
28.882172,507,-127,-12985
28.897797,542,-183,-13060
28.913422,585,-120,-13144
28.929047,628,-75,-13342
28.944672,628,-59,-13356
28.960297,546,-27,-13081
28.975922,489,-77,-12976
28.991547,503,-113,-13053
29.007172,549,-52,-13119
29.022797,610,-56,-13295
29.038422,621,-74,-13338
29.054047,553,-47,-13122
29.069672,499,-99,-13040
29.085297,491,-109,-13042
29.100922,514,-34,-13092
29.116547,562,-31,-13281
29.132172,578,-59,-13290
29.147797,583,-95,-13183
29.163422,551,-134,-13104
29.179047,499,-88,-13013
29.194672,517,-24,-13113
29.210297,544,3,-13256
29.225922,546,-11,-13235
29.241547,564,-90,-13201
29.257172,558,-145,-13108
29.272797,541,-133,-13020
29.288422,546,-92,-13128
29.304047,546,-11,-13224
29.319672,551,-2,-13224
29.335297,546,-59,-13181
29.350922,548,-99,-13101
29.366547,576,-152,-13104
29.382172,582,-111,-13131
29.397797,574,-20,-13220
29.413422,574,-36,-13286
29.429047,551,-42,-13076
29.444672,551,-84,-13029
29.460297,592,-192,-13165
29.475922,612,-154,-13058
29.491547,628,-99,-13195
29.507172,621,-77,-13360
29.522797,557,-22,-13104
29.538422,535,-77,-13065
29.554047,544,-86,-13126
29.569672,574,-86,-13065
29.585297,651,-163,-13242
29.600922,657,-99,-13320
29.616547,614,-93,-13179
29.632172,571,-140,-13078
29.647797,541,-90,-13058
29.663422,549,-79,-13138
29.679047,562,-83,-13145
29.694672,615,-115,-13206
29.710297,669,-150,-13263
29.725922,617,-99,-13092
29.741547,560,-97,-13090
29.757172,562,-100,-13176
29.772797,574,-27,-13104
29.788422,603,-68,-13213
29.804047,624,-129,-13235
29.819672,619,-140,-13117
29.835297,603,-195,-13115
29.850922,599,-92,-13088
29.866547,640,-70,-13436
29.882172,530,-56,-13386
29.897797,294,117,-12726
29.913422,273,35,-12862
29.929047,292,92,-12997
29.944672,417,107,-13099
29.960297,630,-22,-13802
29.975922,432,339,-13692
29.991547,201,551,-13149
30.007172,237,326,-13079
30.022797,319,39,-12969
30.038422,448,-174,-12813
30.054047,535,-104,-12960
30.069672,603,-58,-13429
30.085297,585,-49,-13431
30.100922,541,119,-13099
30.116547,560,-40,-13167
30.132172,380,-175,-13038
30.147797,801,-108,-12733
30.163422,1235,-236,-12931
30.179047,665,-138,-13267
30.194672,482,57,-13365
30.210297,601,87,-13404
30.225922,457,83,-13322
30.241547,405,80,-13086
30.257172,423,33,-12986
30.272797,453,-90,-13033
30.288422,342,44,-12951
30.304047,312,251,-13163
30.319672,385,246,-13524
30.335297,374,132,-13272
30.350922,373,-36,-12999
30.366547,351,-9,-13040
30.382172,392,57,-13078
30.397797,474,-9,-13138
30.413422,460,32,-13181
30.429047,474,87,-13199
30.444672,414,117,-13204
30.460297,326,199,-13354
30.475922,469,241,-13370
30.491547,357,323,-13006
30.507172,92,378,-13022
30.522797,105,385,-13208
30.538422,137,380,-13122
30.554047,198,235,-13201
30.569672,273,123,-13183
30.585297,258,133,-12985
30.600922,241,114,-12978
30.616547,291,155,-13335
30.632172,-90,549,-13035
30.647797,-381,864,-12265
30.663422,101,703,-12920
30.679047,278,542,-13554
30.694672,344,276,-13308
30.710297,605,-17,-13417
30.725922,523,64,-13226
30.741547,403,101,-12913
30.757172,351,151,-13045
30.772797,282,382,-13160
30.788422,246,353,-13163
30.804047,203,239,-13104
30.819672,89,408,-13131
30.835297,16,674,-13447
30.850922,157,582,-13551
30.866547,308,624,-12924
30.882172,183,773,-13622
30.897797,289,-106,-12212
30.913422,1190,271,-7857
30.929047,1324,1539,-10021
30.944672,153,746,-13890
30.960297,-138,167,-13167
30.975922,226,367,-13108
30.991547,244,253,-13394
31.007172,335,166,-13081
31.022797,403,71,-13158
31.038422,455,201,-13285
31.054047,567,187,-13349
31.069672,412,237,-13219
31.085297,187,424,-13217
31.100922,199,385,-13261
31.116547,317,239,-13056
31.132172,374,39,-12956
31.147797,233,266,-12992
31.163422,267,210,-13333
31.179047,112,28,-13378
31.194672,-193,564,-13129
31.210297,89,501,-13410
31.225922,367,126,-13283
31.241547,458,82,-12981
31.257172,466,3,-13006
31.272797,242,189,-12949
31.288422,21,541,-13138
31.304047,23,624,-13413
31.319672,232,369,-13378
31.335297,449,99,-13194
31.350922,487,46,-13051
31.366547,371,144,-12963
31.382172,319,266,-13129
31.397797,305,373,-13349
31.413422,239,432,-13281
31.429047,178,423,-13128
31.444672,128,364,-13067
31.460297,142,294,-13111
31.475922,224,296,-13131
31.491547,274,274,-13133
31.507172,301,187,-13219
31.522797,257,260,-13192
31.538422,174,426,-13153
31.554047,167,478,-13138
31.569672,223,421,-13067
31.585297,258,289,-13104
31.600922,308,174,-13085
31.616547,323,280,-13053
31.632172,208,428,-13174
31.647797,210,348,-13256
31.663422,308,312,-13236
31.679047,314,292,-13294
31.694672,282,349,-13233
31.710297,182,464,-12854
31.725922,155,274,-12815
31.741547,142,376,-13038
31.757172,119,598,-13113
31.772797,244,351,-13310
31.788422,324,296,-13313
31.804047,299,366,-13201
31.819672,196,232,-13174
31.835297,201,328,-12942
31.850922,64,367,-13115
31.866547,-274,210,-13506
31.882172,14,380,-13319
31.897797,296,421,-13128
31.913422,189,305,-13110
31.929047,376,430,-13186
31.944672,41,267,-13086
31.960297,-220,296,-12738
31.975922,317,721,-13074
31.991547,262,649,-13463
32.007172,182,441,-13283
32.022797,433,417,-13278
32.038422,374,396,-13417
32.054047,296,457,-13308
32.069672,237,514,-13092
32.085297,226,473,-13010
32.100922,228,410,-12985
32.116517,192,432,-13045
32.132142,223,476,-13206
32.147767,260,491,-13279
32.163392,273,442,-13270
32.179017,269,401,-13219
32.194642,246,405,-13094
32.210267,244,362,-12997
32.225892,224,373,-13031
; 32 stopping logging: shutdown: switched off
