;Title, http://www.gcdataconcepts.com, x2-2,Kionix KXRB5-2050
;Version, 1102, Build date, Oct  6 2015,  SN:CCDC10023F56AE8
;Start_time, 2007-02-11, 22:40:15.734
;Temperature, -999.00, deg C,  Vbat, 4150, mv
;Gain, high
;SampleRate, 64,Hz
;Deadband, 0, counts
;DeadbandTimeout, 0,sec
;Headers, time,Ax,Ay,Az
0.409882,8,-547,-13224
0.425507,58,-552,-13188
0.441132,64,-525,-13120
0.456757,-33,-531,-13176
0.472382,16,-545,-13170
0.488007,-52,-502,-13010
0.503632,-59,-597,-13208
0.534882,433,-725,-13186
0.550507,446,-691,-12938
0.566132,276,-725,-13222
0.581757,419,-677,-13240
0.597382,223,-583,-13310
0.613007,53,-588,-13192
0.628632,16,-581,-12849
0.644257,-88,-622,-13060
0.659882,137,-686,-12808
0.675507,408,-679,-13106
0.691132,603,-670,-14263
0.706757,882,-715,-13706
0.722382,885,-895,-12626
0.738007,932,-1099,-12831
0.753632,1187,-1252,-12449
0.769257,1107,-1179,-12185
0.784882,762,-686,-13449
0.800507,871,-515,-14006
0.816132,1283,-700,-13749
0.831757,1437,-783,-13542
0.847382,1187,-784,-12869
0.863007,674,-558,-12487
0.878632,405,-336,-12847
0.894257,312,-297,-13326
0.909882,316,-154,-13286
0.925507,262,-2,-13158
0.941132,-18,14,-13428
0.956757,-125,57,-13145
0.972382,-238,108,-12781
0.988007,-365,64,-13078
1.003632,-111,-24,-13120
1.019257,73,39,-13231
1.034882,-222,199,-13453
1.050507,-609,214,-13036
1.066132,-608,194,-12995
1.081757,-608,257,-13533
1.097382,-618,139,-13499
1.113007,-261,-99,-12983
1.128632,-54,-188,-12956
1.144257,-18,-208,-13315
1.159882,83,-234,-13083
1.175507,-27,-161,-12860
1.191132,-293,-13,-13310
1.206757,-270,-20,-13342
1.222382,-154,-104,-12958
1.238007,-227,-99,-13163
1.253632,-249,-42,-13410
1.269257,-497,96,-13128
1.284882,-904,192,-13074
1.300507,-743,80,-13333
1.316132,-229,-188,-13260
1.331757,114,-424,-13045
1.347382,92,-408,-12912
1.363007,-213,-249,-12747
1.378632,-377,-143,-12944
1.394257,-465,0,-13406
1.409882,-540,14,-13374
1.425507,-711,101,-13145
1.441132,-1061,305,-13181
1.456757,-761,-27,-13124
1.472382,130,-572,-12895
1.488007,548,-711,-12862
1.503632,157,-340,-13126
1.519257,-490,178,-13395
1.534882,-545,174,-13760
1.550507,-167,-67,-13961
1.566132,-24,-215,-13394
1.581757,-4,-490,-12379
1.597382,-42,-595,-11981
1.613007,-195,-340,-12706
1.628632,-270,3,-13747
1.644257,-318,219,-14270
1.659882,-361,103,-13845
1.675507,-234,-313,-12731
1.691132,-74,-581,-12140
1.706757,-20,-517,-12544
1.722382,-25,-267,-13310
1.738007,-175,19,-13836
1.753632,-415,141,-13799
1.769257,-422,-22,-13233
1.784882,-188,-324,-12745
1.800507,32,-492,-12776
1.816132,123,-449,-13008
1.831757,-6,-290,-13144
1.847382,-275,-93,-13269
1.863007,-438,49,-13406
1.878632,-361,1,-13436
1.894257,-138,-211,-13310
1.909882,8,-393,-13045
1.925507,7,-458,-12674
1.941132,-143,-343,-12640
1.956757,-365,-77,-13203
1.972382,-413,98,-13738
1.988007,-279,53,-13802
2.003632,-167,-145,-13397
2.019257,-92,-409,-12640
2.034882,-113,-517,-12276
2.050507,-213,-334,-12785
2.066132,-250,-42,-13601
2.081757,-297,137,-13995
2.097382,-318,41,-13672
2.113007,-259,-238,-12935
2.128632,-181,-433,-12433
2.144257,-104,-443,-12558
2.159882,-113,-238,-13194
2.175507,-211,0,-13717
2.191132,-313,44,-13685
2.206757,-356,-54,-13295
2.222382,-261,-245,-12888
2.238007,-83,-408,-12728
2.253632,-6,-386,-12931
2.269257,-83,-256,-13213
2.284882,-234,-108,-13338
2.300507,-356,-11,-13408
2.316132,-304,-79,-13365
2.331757,-131,-252,-13179
2.347382,28,-356,-12999
2.363007,35,-431,-12842
2.378632,-143,-370,-12820
2.394257,-208,-59,-13326
2.409882,-279,44,-13813
2.425507,-329,-93,-13395
2.441132,-306,-222,-12774
2.456757,-356,-292,-12629
2.472382,-324,-218,-12924
2.488007,-347,-59,-13349
2.503632,-363,19,-13510
2.519257,-420,92,-13565
2.534882,-499,42,-13310
2.550507,-258,-270,-12738
2.566132,-6,-418,-12787
2.581757,112,-418,-13163
2.597382,176,-379,-13265
2.613007,-6,-233,-13342
2.628632,-115,-225,-13206
2.644257,-61,-263,-13124
2.659882,30,-320,-13185
2.675507,244,-477,-13124
2.691132,223,-445,-13110
2.706757,32,-352,-12949
2.722382,-83,-274,-13003
2.738007,-188,-167,-13403
2.753632,-65,-236,-13426
2.769257,71,-334,-13290
2.784882,74,-429,-13049
2.800507,132,-547,-12703
2.816132,42,-445,-12904
2.831757,-45,-292,-13328
2.847382,-31,-215,-13565
2.863007,-49,-211,-13467
2.878632,39,-397,-12972
2.894257,76,-504,-12770
2.909882,48,-443,-12899
2.925507,73,-363,-13169
2.941132,-24,-258,-13558
2.956757,-108,-240,-13436
2.972382,-100,-320,-13044
2.988007,-63,-399,-12963
3.003632,73,-461,-12997
3.019257,142,-434,-13135
3.034882,48,-349,-13283
3.050507,-56,-304,-13226
3.066132,-131,-272,-13140
3.081757,-108,-281,-13151
3.097382,14,-358,-13213
3.113007,89,-409,-13192
3.128632,92,-436,-13040
3.144257,8,-417,-12969
3.159882,-102,-331,-13097
3.175507,-108,-258,-13304
3.191132,-38,-265,-13420
3.206757,16,-338,-13285
3.222382,67,-443,-12929
3.238007,73,-456,-12801
3.253632,-24,-359,-13063
3.269257,-84,-263,-13331
3.284882,-99,-208,-13453
3.300507,-117,-263,-13367
3.316132,-49,-397,-12988
3.331757,24,-445,-12808
3.347382,12,-395,-13029
3.363007,-4,-331,-13240
3.378632,-86,-238,-13374
3.394257,-186,-206,-13324
3.409882,-174,-274,-13083
3.425507,-104,-340,-13024
3.441132,-6,-386,-13088
3.456757,12,-354,-13160
3.472382,-84,-267,-13215
3.488007,-149,-238,-13138
3.503632,-195,-233,-13170
3.519257,-206,-242,-13258
3.534882,-95,-297,-13174
3.550507,-49,-347,-13133
3.566132,-117,-343,-13051
3.581757,-145,-290,-12965
3.597382,-206,-197,-13195
3.613007,-254,-152,-13395
3.628632,-183,-193,-13317
3.644257,-140,-267,-13153
3.659882,-131,-359,-12963
3.675507,-120,-363,-12917
3.691132,-156,-268,-13106
3.706757,-209,-179,-13381
3.722382,-249,-147,-13456
3.738007,-204,-211,-13178
3.753632,-158,-304,-12969
3.769257,-158,-336,-12979
3.784882,-95,-306,-13028
3.800507,-118,-233,-13278
3.816132,-227,-175,-13406
3.831757,-224,-200,-13167
3.847382,-208,-258,-13076
3.863007,-170,-311,-13119
3.878632,-67,-350,-13078
3.894257,-79,-320,-13135
3.909882,-163,-275,-13179
3.925507,-211,-243,-13156
3.941132,-220,-215,-13190
3.956757,-165,-247,-13242
3.972382,-95,-299,-13208
3.988007,-47,-345,-13058
4.003632,-50,-349,-12999
4.019257,-120,-284,-13126
4.034882,-143,-245,-13222
4.050507,-150,-236,-13317
4.066132,-136,-272,-13328
4.081757,-47,-359,-13061
4.097382,-15,-388,-12901
4.113007,-56,-350,-13045
4.128632,-67,-295,-13210
4.144257,-79,-236,-13329
4.159882,-124,-227,-13329
4.175507,-93,-322,-13136
4.191132,-13,-409,-12986
4.206757,10,-402,-13006
4.222382,-2,-374,-13169
4.238007,-33,-320,-13288
4.253632,-68,-275,-13220
4.269257,-117,-290,-13201
4.284882,-95,-331,-13156
4.300507,39,-397,-13042
4.316132,42,-395,-13153
4.331757,-24,-354,-13194
4.347382,-22,-338,-13074
4.363007,-104,-284,-13188
4.378632,-129,-293,-13254
4.394257,-29,-352,-13169
4.409882,-18,-349,-13163
4.425507,-2,-395,-13070
4.441132,10,-400,-13019
4.456757,-84,-308,-13129
4.472382,-92,-272,-13247
4.488007,-75,-252,-13328
4.503632,-75,-297,-13199
4.519257,-29,-370,-13008
4.534882,-49,-367,-13013
4.550507,-43,-367,-13072
4.566132,-58,-322,-13213
4.581757,-142,-247,-13356
4.597382,-129,-270,-13249
4.613007,-109,-317,-13088
4.628632,-95,-342,-13042
4.644257,-43,-347,-13076
4.659882,-75,-295,-13179
4.675507,-113,-274,-13217
4.691132,-150,-254,-13213
4.706757,-179,-234,-13181
4.722382,-115,-293,-13103
4.738007,-92,-317,-13135
4.753632,-104,-302,-13149
4.769257,-95,-304,-13086
4.784882,-158,-259,-13149
4.800507,-200,-234,-13211
4.816132,-161,-256,-13211
4.831757,-152,-258,-13231
4.847382,-122,-293,-13117
4.863007,-90,-318,-13017
4.878632,-145,-275,-13106
4.894257,-181,-227,-13178
4.909882,-184,-202,-13247
4.925507,-190,-229,-13297
4.941132,-147,-281,-13154
4.956757,-118,-315,-13013
4.972382,-138,-311,-13031
4.988007,-127,-277,-13131
5.003632,-145,-224,-13270
5.019257,-175,-199,-13270
5.034882,-161,-242,-13156
5.050507,-158,-279,-13120
5.066132,-108,-315,-13072
5.081757,-81,-325,-13126
5.097382,-138,-286,-13229
5.113007,-138,-268,-13158
5.128632,-150,-242,-13190
5.144257,-186,-234,-13210
5.159882,-104,-304,-13086
5.175507,-59,-324,-13154
5.191132,-75,-320,-13133
5.206757,-79,-318,-13058
5.222382,-159,-254,-13211
5.238007,-145,-247,-13213
5.253632,-95,-283,-13174
5.269257,-115,-306,-13208
5.284882,-52,-361,-13065
5.300507,-45,-370,-13056
5.316132,-83,-340,-13167
5.331757,-72,-309,-13163
5.347382,-95,-252,-13297
5.363007,-93,-281,-13233
5.378632,-50,-384,-13013
5.394257,-13,-306,-13390
5.409882,-84,-236,-13454
5.425507,-200,-352,-12756
5.441132,-336,-286,-12694
5.456757,-374,-175,-13224
5.472382,-286,-175,-13388
5.488007,-343,-147,-13156
5.503632,-304,-245,-12969
5.519257,-233,-236,-13244
5.534882,-238,-131,-13524
5.550507,-197,-195,-13394
5.566132,-345,-234,-13094
5.581757,-429,-275,-12690
5.597382,-379,-247,-12858
5.613007,-408,-111,-13483
5.628632,-354,-109,-13395
5.644257,-429,-95,-13094
5.659882,-600,-59,-13128
5.675507,-520,-86,-13197
5.691132,-400,-65,-13424
5.706757,-400,-106,-13358
5.722382,-461,-174,-12926
5.738007,-527,-170,-12826
5.753632,-543,-138,-12976
5.769257,-672,12,-13167
5.784882,-940,228,-13272
5.800507,-1141,324,-13192
5.816132,-1174,366,-13317
5.831757,-1104,458,-13465
5.847382,-1106,448,-13160
5.863007,-1222,464,-12883
5.878632,-1325,601,-12944
5.894257,-1372,762,-13065
5.909882,-1357,982,-13395
5.925507,-1547,1092,-13515
5.941132,-1957,1562,-13313
5.956757,-2265,2010,-13688
5.972382,-2413,2169,-13870
5.988007,-2379,2713,-13304
6.003632,-2388,2988,-12965
6.019257,-2322,3221,-12853
6.034882,-1950,3562,-12526
6.050507,-841,3251,-12333
6.066132,714,2694,-12619
6.081757,1587,2176,-12588
6.097382,2417,1681,-12319
6.113007,2890,1760,-13490
6.128632,2367,2165,-15176
6.144257,2165,2324,-14699
6.159882,2146,2247,-13453
6.175507,1530,1801,-13151
6.191132,1130,1585,-12219
6.206757,1205,1781,-11804
6.222382,1346,1947,-13199
6.238007,1735,2183,-14047
6.253632,2087,2289,-13954
6.269257,2042,2097,-13901
6.284882,1785,1819,-13419
6.300507,1510,1592,-12410
6.316132,1439,1567,-11954
6.331757,1646,1646,-12917
6.347382,1926,1887,-13663
6.363007,2015,2199,-13740
6.378632,1842,2047,-14254
6.394257,1612,1924,-13410
6.409882,1464,1847,-12117
6.425507,1564,1424,-12660
6.441132,1833,1483,-13085
6.456757,1960,1846,-13258
6.472382,1899,1951,-13938
6.488007,1694,2103,-13652
6.503632,1594,2035,-12869
6.519257,1649,1767,-12663
6.534882,1812,1637,-12981
6.550507,2008,1605,-13440
6.566132,1926,1726,-13499
6.581757,1705,1819,-13447
6.597382,1494,1858,-13095
6.613007,1412,1896,-12649
6.628632,1692,1780,-13104
6.644257,1937,1758,-13492
6.659882,1951,1814,-13386
6.675507,1949,1748,-13436
6.691132,1681,1815,-13156
6.706757,1353,1922,-12870
6.722382,1358,1842,-13006
6.738007,1514,1769,-13115
6.753632,1760,1723,-13242
6.769257,1892,1699,-13429
6.784882,1812,1764,-13528
6.800507,1646,1821,-13390
6.816132,1406,1839,-13024
6.831757,1312,1823,-12788
6.847382,1369,1773,-12806
6.863007,1490,1773,-13120
6.878632,1653,1815,-13644
6.894257,1614,1824,-13831
6.909882,1442,1780,-13460
6.925507,1331,1640,-12887
6.941132,1251,1540,-12572
6.956757,1230,1617,-12724
6.972382,1294,1751,-13233
6.988007,1414,1880,-13751
7.003632,1437,1880,-13833
7.019257,1294,1749,-13469
7.034882,1135,1589,-12928
7.050507,1033,1423,-12558
7.066132,1048,1423,-12687
7.081757,1149,1539,-13145
7.097382,1231,1662,-13658
7.113007,1256,1749,-13874
7.128632,1187,1615,-13520
7.144257,1024,1444,-12965
7.159882,899,1367,-12622
7.175507,919,1306,-12690
7.191132,1019,1367,-13194
7.206757,1044,1517,-13674
7.222382,960,1567,-13731
7.238007,883,1456,-13383
7.253632,882,1285,-12922
7.269257,935,1146,-12738
7.284882,990,1110,-12913
7.300507,974,1207,-13299
7.316132,851,1324,-13551
7.331757,746,1323,-13415
7.347382,717,1240,-13169
7.363007,733,1121,-13063
7.378632,840,1001,-13008
7.394257,939,957,-13067
7.409882,903,985,-13249
7.425507,753,1064,-13269
7.441132,658,1105,-13231
7.456757,649,1083,-13317
7.472382,740,980,-13204
7.488007,919,835,-13010
7.503632,896,796,-13111
7.519257,776,801,-13208
7.534882,676,851,-13228
7.550507,596,869,-13313
7.566132,669,785,-13183
7.581757,712,753,-12985
7.597382,794,730,-13054
7.613007,885,715,-13310
7.628632,857,730,-13399
7.644257,805,701,-13208
7.659882,615,635,-13092
7.675507,533,578,-12988
7.691132,687,592,-12933
7.706757,785,594,-13326
7.722382,871,558,-13494
7.738007,930,578,-13185
7.753632,783,521,-13185
7.769257,617,492,-13110
7.784882,649,535,-12872
7.800507,735,462,-13158
7.816132,801,444,-13319
7.831757,939,483,-13206
7.847382,932,439,-13395
7.863007,782,446,-13311
7.878632,773,387,-13020
7.894257,757,292,-12978
7.909882,733,335,-12931
7.925507,865,342,-13145
7.941132,894,401,-13392
7.956757,860,494,-13347
7.972382,915,362,-13388
7.988007,840,287,-13138
8.003632,783,269,-12822
8.019257,853,183,-13040
8.034882,821,298,-13099
8.050507,871,351,-13195
8.066132,1074,358,-13551
8.081757,915,271,-13161
8.097382,812,276,-13231
8.113007,1317,626,-14181
8.128632,1587,23,-13658
8.144257,1644,-979,-12360
8.159882,1847,-1125,-11719
8.175507,1937,-1047,-11828
8.191132,2255,-1104,-13254
8.206757,2642,-999,-14177
8.222382,2713,-895,-13774
8.238007,2676,-1431,-13663
8.253632,2663,-1938,-12938
8.269257,2608,-1909,-12017
8.284882,2237,-1561,-12924
8.300507,1633,-950,-13901
8.316132,1223,-804,-13667
8.331757,835,-954,-13083
8.347382,253,-666,-12629
8.363007,-331,-397,-12858
8.378632,-618,-233,-13042
8.394257,-431,-167,-12967
8.409882,16,-613,-13310
8.425507,303,-793,-12961
8.441132,364,-615,-12587
8.456757,392,-684,-13351
8.472382,457,-468,-13463
8.488007,646,-345,-13442
8.503632,835,-684,-14020
8.519257,682,-690,-13283
8.534882,308,-695,-12317
8.550507,-6,-761,-12517
8.566132,-222,-361,-12885
8.581757,-259,-124,-13335
8.597382,-70,-270,-13574
8.613007,173,-450,-13258
8.628632,358,-677,-12931
8.644257,571,-754,-12724
8.659882,835,-809,-13079
8.675507,1080,-856,-13506
8.691132,1157,-727,-13308
8.706757,1044,-818,-13345
8.722382,830,-811,-13124
8.738007,626,-608,-12749
8.753632,603,-684,-13270
8.769257,665,-663,-13372
8.784882,719,-647,-13078
8.800507,753,-831,-13278
8.816132,617,-699,-13099
8.831757,423,-554,-12947
8.847382,391,-620,-13204
8.863007,394,-574,-13190
8.878632,324,-568,-13101
8.894257,233,-534,-13013
8.909882,180,-459,-13011
8.925507,230,-518,-13111
8.941132,351,-522,-13076
8.956757,444,-565,-13363
8.972382,423,-547,-13458
8.988007,299,-422,-13020
9.003632,219,-533,-13051
9.019257,180,-545,-13022
9.034882,162,-438,-12904
9.050507,241,-520,-13369
9.066132,253,-431,-13326
9.081757,246,-420,-13024
9.097382,382,-616,-13094
9.113007,467,-543,-13042
9.128632,542,-554,-13288
9.144257,632,-668,-13340
9.159882,583,-620,-12979
9.175507,537,-699,-13045
9.191132,528,-674,-12995
9.206757,567,-595,-13079
9.222382,692,-709,-13481
9.238007,710,-640,-13213
9.253632,630,-593,-13088
9.269257,526,-643,-13228
9.284882,382,-511,-12936
9.300507,333,-533,-13061
9.316132,335,-561,-13301
9.331757,287,-458,-13122
9.347382,282,-518,-13056
9.363007,319,-561,-13004
9.378632,403,-570,-13063
9.394257,510,-592,-13247
9.409882,523,-549,-13320
9.425507,451,-588,-13342
9.441132,348,-581,-13028
9.456757,264,-520,-12833
9.472382,283,-543,-13153
9.488007,355,-475,-13201
9.503632,453,-472,-13163
9.519257,553,-624,-13326
9.534882,551,-636,-13060
9.550507,544,-659,-12897
9.566132,558,-697,-13261
9.581757,501,-545,-13342
9.597382,441,-500,-13158
9.613007,385,-590,-13145
9.628632,316,-568,-13013
9.644257,307,-552,-12915
9.659882,349,-561,-13160
9.675507,380,-518,-13308
9.691132,389,-508,-13192
9.706757,394,-534,-13126
9.722382,423,-563,-13161
9.738007,462,-597,-13140
9.753632,469,-620,-13085
9.769257,441,-633,-13158
9.784882,371,-586,-13174
9.800507,283,-475,-13028
9.816132,269,-442,-13174
9.831757,339,-477,-13378
9.847382,405,-479,-13156
9.863007,437,-565,-13086
9.878632,407,-634,-13135
9.894257,296,-547,-12912
9.909882,239,-513,-13013
9.925507,266,-500,-13297
9.941132,303,-483,-13244
9.956757,332,-529,-13111
9.972382,312,-520,-13119
9.988007,282,-509,-13147
10.003632,321,-513,-13042
10.019257,358,-524,-13094
10.034882,373,-552,-13286
10.050507,407,-509,-13129
10.066132,405,-484,-13060
10.081757,342,-504,-13286
10.097382,294,-440,-13219
10.113007,341,-463,-13097
10.128632,401,-604,-13179
10.144257,391,-620,-13083
10.160004,394,-584,-12997
10.175629,433,-597,-13119
10.191254,462,-568,-13181
10.206879,489,-525,-13233
10.222504,487,-518,-13263
10.238129,437,-547,-13154
10.253754,383,-577,-13031
10.269379,342,-552,-13001
10.285004,337,-536,-13120
10.300629,391,-550,-13235
10.316254,416,-547,-13197
10.331879,441,-611,-13190
10.347504,491,-638,-13129
10.363129,512,-583,-13051
10.378754,569,-645,-13203
10.394379,667,-690,-13224
10.410004,692,-618,-13120
10.425629,758,-718,-13204
10.441254,992,-968,-13099
10.456879,1298,-1091,-12949
10.472504,1780,-1257,-13161
10.488129,2047,-1341,-13406
10.503754,1830,-1115,-13383
10.519379,1735,-1131,-13097
10.535004,1698,-1279,-12828
10.550629,1694,-1202,-12837
10.566254,1881,-1095,-12935
10.581879,1944,-1041,-13160
10.597504,2015,-1141,-13142
10.613129,2296,-1090,-12717
10.628754,2665,-1179,-13054
10.644379,2680,-1431,-12888
10.660004,2701,-731,-12237
10.675629,3249,-406,-14292
10.691254,3203,-492,-15538
10.706879,2962,158,-13388
10.722504,3329,-218,-12296
10.738129,3306,-525,-12208
10.753754,2942,430,-11903
10.769379,2751,1130,-13063
10.785004,2453,1739,-14588
10.800629,2260,2285,-14831
10.816254,2376,1894,-14467
10.831879,2581,1042,-13342
10.847504,2938,812,-11037
10.863129,3154,976,-10330
10.878754,3533,1451,-11749
10.894379,3965,2417,-13640
10.910004,3613,3201,-15686
10.925629,3490,3776,-15399
10.941254,3046,3865,-13965
10.956879,1723,3365,-12953
10.972504,1453,3285,-10971
10.988129,1344,3496,-11465
11.003754,1044,3638,-14044
11.019379,1726,3699,-14497
11.035004,2206,3467,-13763
11.050629,2294,3221,-13111
11.066254,2139,3274,-12949
11.081879,1473,3501,-13051
11.097504,1396,3513,-12919
11.113129,1569,3587,-13669
11.128754,1630,3544,-14106
11.144379,2078,3165,-13224
11.159882,2042,3131,-12770
11.175507,1731,3179,-12492
11.191132,1678,3346,-12635
11.206757,1537,3797,-13829
11.222382,1610,3794,-14343
11.238007,1837,3560,-13897
11.253632,1867,3301,-13088
11.269257,1758,3046,-12271
11.284882,1642,3187,-12254
11.300507,1651,3387,-12997
11.316132,1801,3638,-14008
11.331757,1953,3763,-14354
11.347382,1983,3497,-13769
11.363007,1890,3358,-13078
11.378632,1669,3197,-12410
11.394257,1601,3129,-12329
11.409882,1749,3351,-13086
11.425507,1924,3438,-13754
11.441132,2187,3467,-14042
11.456757,2183,3433,-13842
11.472382,1935,3278,-13195
11.488007,1783,3153,-12642
11.503632,1630,3121,-12562
11.519257,1712,3165,-12990
11.534882,2006,3185,-13495
11.550507,2201,3151,-13815
11.566132,2287,3085,-13751
11.581757,2137,3028,-13181
11.597382,1874,3026,-12806
11.613007,1719,3058,-12858
11.628632,1746,3033,-13083
11.644257,1967,2953,-13415
11.659882,2126,2871,-13529
11.675507,2228,2722,-13463
11.691132,2156,2683,-13163
11.706757,1851,2810,-12853
11.722382,1746,2831,-13145
11.738007,1771,2838,-13379
11.753632,1794,2744,-13363
11.769257,1999,2455,-13413
11.784882,2083,2355,-13110
11.800507,1953,2406,-12928
11.816132,1862,2487,-13103
11.831757,1783,2630,-13267
11.847382,1712,2621,-13526
11.863007,1737,2494,-13488
11.878632,1847,2280,-13204
11.894257,1830,2080,-13019
11.909882,1676,2169,-12762
11.925507,1631,2278,-13001
11.941132,1635,2312,-13549
11.956757,1662,2412,-13524
11.972382,1733,2289,-13463
11.988007,1690,2069,-13340
12.003632,1512,2065,-12822
12.019257,1362,2056,-12822
12.034882,1392,2042,-13195
12.050507,1512,2117,-13308
12.066132,1544,2114,-13447
12.081757,1571,2085,-13449
12.097382,1490,2078,-13272
12.113007,1246,2019,-13097
12.128632,1153,1964,-12924
12.144257,1194,1914,-13053
12.159882,1278,1937,-13188
12.175507,1426,2014,-13328
12.191132,1392,2014,-13663
12.206757,1281,1976,-13349
12.222382,1189,1942,-12810
12.238007,955,1928,-12985
12.253632,978,1962,-13199
12.269257,1171,2005,-13338
12.284882,1123,1999,-13531
12.300507,1164,1899,-13233
12.316132,1207,1840,-12878
12.331757,1032,1931,-13033
12.347382,982,1974,-13345
12.363007,885,2106,-13369
12.378632,1017,1958,-13404
12.394257,1117,1823,-13060
12.409882,414,2342,-12645
12.425507,601,1862,-13415
12.441132,317,2031,-13454
12.456757,-1943,3210,-12631
12.472382,-3247,3106,-12231
12.488007,-3727,3324,-13006
12.503632,-3689,3226,-14863
12.519257,-2223,2099,-15376
12.534882,-1043,973,-13549
12.550507,-672,-113,-11594
12.566132,-815,73,-11808
12.581757,-1027,198,-11863
12.597382,-954,78,-12087
12.613007,-1534,1296,-14361
12.628632,-1607,1380,-15183
12.644257,-1063,764,-14326
12.659882,-874,399,-13401
12.675507,-481,-520,-11815
12.691132,-497,-533,-11342
12.706757,-658,-158,-12112
12.722382,-481,146,-13551
12.738007,-561,860,-15020
12.753632,-481,560,-14599
12.769257,-283,-33,-13449
12.784882,-265,-392,-12240
12.800507,-215,-865,-11267
12.816132,-349,-424,-12192
12.831757,-418,149,-13677
12.847382,-406,507,-14586
12.863007,-540,712,-14742
12.878632,-524,183,-13435
12.894257,-531,-322,-12092
12.909882,-515,-445,-11937
12.925507,-472,-213,-12631
12.941132,-643,214,-13499
12.956757,-733,462,-14052
12.972382,-715,514,-14099
12.988007,-574,64,-13247
13.003632,-356,-436,-12338
13.019257,-184,-511,-12351
13.034882,-49,-497,-12638
13.050507,-181,-190,-13124
13.066132,-431,239,-13731
13.081757,-568,321,-13695
13.097382,-663,208,-13381
13.113007,-663,8,-12985
13.128632,-866,-9,-12440
13.144257,-1215,271,-12619
13.159882,-1300,612,-13542
13.175507,-1399,930,-14061
13.191132,-1432,926,-13769
13.206757,-1352,692,-13158
13.222382,-1315,553,-12695
13.238007,-1199,508,-12487
13.253632,-1365,805,-12658
13.269257,-1590,1319,-13449
13.284882,-1427,1546,-14179
13.300507,-1420,1673,-14045
13.316132,-1574,1676,-13276
13.331757,-1561,1489,-12362
13.347382,-1379,1628,-12560
13.363007,-1365,2130,-13381
13.378632,-1511,2455,-13365
13.394257,-975,2446,-13433
13.409882,126,2083,-13708
13.425507,1033,1414,-13144
13.441132,1428,932,-12306
13.456757,2003,483,-12431
13.472382,2422,223,-13153
13.488007,2039,319,-13702
13.503632,1926,196,-13699
13.519257,1862,-58,-13406
13.534882,1615,-308,-12954
13.550507,1855,-563,-12299
13.566132,1687,-572,-12863
13.581757,1321,-433,-13835
13.597382,1876,-558,-13561
13.613007,1960,-877,-13261
13.628632,1714,-1131,-12954
13.644257,2228,-1250,-12437
13.659882,1762,-1193,-13081
13.675507,1196,-1158,-13863
13.691132,1812,-1183,-13586
13.706757,1573,-1334,-13185
13.722382,1062,-1547,-12553
13.738007,1128,-1402,-12031
13.753632,676,-1009,-13015
13.769257,274,-650,-14088
13.784882,344,-527,-13804
13.800507,353,-733,-13035
13.816132,442,-943,-12533
13.831757,424,-904,-12772
13.847382,173,-672,-13392
13.863007,44,-509,-13631
13.878632,-122,-622,-13410
13.894257,-174,-775,-12656
13.909882,-18,-779,-12363
13.925507,-90,-647,-13274
13.941132,-127,-433,-13863
13.956757,-8,-411,-13453
13.972382,-104,-608,-12960
13.988007,-174,-691,-12624
14.003632,-92,-584,-12763
14.019257,-213,-431,-13495
14.034882,-356,-368,-13767
14.050507,-300,-492,-13195
14.066132,-229,-686,-12626
14.081757,-142,-741,-12724
14.097382,-70,-615,-13269
14.113007,-42,-470,-13563
14.128632,-74,-472,-13410
14.144257,-156,-583,-13049
14.160004,-168,-599,-12769
14.175629,-229,-506,-12944
14.191254,-342,-433,-13394
14.206879,-356,-404,-13458
14.222504,-342,-529,-13086
14.238129,-250,-706,-12781
14.253754,-75,-704,-12920
14.269379,1,-593,-13294
14.285004,17,-509,-13470
14.300629,-52,-517,-13385
14.316254,-142,-563,-13020
14.331879,-145,-567,-12792
14.347504,-259,-525,-13094
14.363129,-327,-458,-13308
14.378754,-243,-450,-13226
14.394379,-249,-547,-13194
14.410004,-167,-620,-13038
14.425629,-8,-609,-13008
14.441254,-63,-567,-13315
14.456879,-147,-511,-13342
14.472504,-204,-513,-13094
14.488129,-290,-538,-12908
14.503754,-213,-518,-12908
14.519379,-143,-513,-13211
14.535004,-74,-508,-13331
14.550629,55,-550,-13304
14.566254,24,-652,-13274
14.581879,66,-702,-12942
14.597504,107,-713,-13006
14.613129,10,-645,-13319
14.628754,74,-545,-13172
14.644379,24,-561,-13224
14.660004,-115,-577,-13208
14.675629,-36,-538,-12910
14.691254,-134,-534,-13131
14.706879,-233,-545,-13285
14.722504,-122,-567,-13086
14.738129,-142,-611,-13086
14.753754,-93,-629,-13074
14.769379,3,-636,-13131
14.785004,-25,-622,-13165
14.800629,24,-581,-13069
14.816254,8,-593,-13263
14.831879,-22,-577,-13192
14.847504,69,-531,-12961
14.863129,-86,-531,-13304
14.878754,-224,-492,-13308
14.894379,-170,-472,-12999
14.910004,-322,-538,-13172
14.925629,-343,-547,-13167
14.941254,-179,-525,-12997
14.956879,-190,-542,-13149
14.972504,-190,-509,-13186
14.988129,-172,-465,-13085
15.003754,-183,-477,-13106
15.019379,-136,-500,-13174
15.035004,-133,-504,-13195
15.050629,-74,-549,-13153
15.066254,-6,-613,-13233
15.081879,-24,-636,-13206
15.097504,66,-665,-13003
15.113129,96,-681,-13163
15.128754,30,-652,-13242
15.144379,82,-618,-13008
15.159882,16,-588,-13122
15.175507,-70,-579,-13235
15.191132,-17,-565,-13078
15.206757,-72,-550,-13147
15.222382,-138,-547,-13233
15.238007,-127,-543,-13092
15.253632,-118,-565,-13054
15.269257,-131,-570,-13197
15.284882,-167,-550,-13192
15.300507,-131,-565,-13020
15.316132,-120,-583,-13126
15.331757,-186,-558,-13229
15.347382,-118,-513,-12967
15.363007,-104,-511,-13074
15.378632,-161,-520,-13322
15.394257,-31,-492,-13149
15.409882,-42,-517,-13235
15.425507,-145,-575,-13256
15.441132,-102,-575,-12961
15.456757,-179,-552,-13124
15.472382,-234,-545,-13247
15.488007,-147,-542,-13063
15.503632,-159,-538,-13120
15.519257,-109,-550,-13174
15.534882,7,-565,-13201
15.550507,-4,-561,-13211
15.566132,-2,-579,-13078
15.581757,-79,-615,-13174
15.597382,-156,-595,-13085
15.613007,-42,-563,-12947
15.628632,-106,-549,-13413
15.644257,-152,-474,-13261
15.659882,-36,-452,-12858
15.675507,-275,-522,-13320
15.691132,-320,-527,-13206
15.706757,-97,-538,-12797
15.722382,-170,-611,-13228
15.738007,-49,-620,-13372
15.753632,187,-556,-12958
15.769257,139,-563,-13061
15.784882,-20,-634,-13488
15.800507,-109,-650,-13115
15.816132,-68,-645,-12651
15.831757,-163,-636,-13285
15.847382,-183,-558,-13408
15.863007,92,-490,-12856
15.878632,-25,-545,-13440
15.894257,-179,-550,-13419
15.909882,105,-506,-12579
15.925507,-27,-597,-13219
15.941132,-145,-611,-13474
15.956757,221,-567,-12742
15.972382,183,-695,-13224
15.988007,66,-756,-13513
16.003632,249,-684,-12858
16.019257,87,-683,-13074
16.034882,-183,-645,-13433
16.050507,-118,-536,-12986
16.066132,-134,-502,-12910
16.081757,-261,-495,-13328
16.097382,-143,-454,-13229
16.113007,32,-463,-12970
16.128632,-17,-574,-13283
16.144257,-118,-634,-13303
16.159882,-95,-593,-12797
16.175507,-236,-579,-13022
16.191132,-470,-513,-13469
16.206757,-442,-340,-13135
16.222382,-549,-256,-13058
16.238007,-858,-265,-13285
16.253632,-788,-227,-12897
16.269257,-579,-200,-12910
16.284882,-586,-254,-13511
16.300507,-400,-327,-13292
16.316132,-200,-411,-12876
16.331757,-327,-483,-13186
16.347382,-352,-442,-13340
16.363007,-293,-399,-13240
16.378632,-322,-434,-13331
16.394257,-342,-327,-13394
16.409882,-681,-29,-13329
16.425507,-1386,332,-13183
16.441132,-2175,662,-13140
16.456757,-2922,948,-13074
16.472382,-3347,1335,-12888
16.488007,-3593,1790,-13092
16.503632,-3613,1967,-13238
16.519257,-3189,2106,-13044
16.534882,-2857,2472,-13356
16.550507,-2273,2456,-13151
16.566132,-1270,2126,-12215
16.581757,-452,1960,-12581
16.597382,826,1492,-13478
16.613007,2817,507,-13595
16.628632,4181,-593,-13265
16.644257,4654,-1713,-12915
16.659882,5069,-2525,-12824
16.675507,5277,-2856,-12499
16.691132,5208,-3209,-12531
16.706757,5235,-3275,-13208
16.722382,5297,-2795,-13670
16.738007,5024,-2527,-14236
16.753632,4372,-2361,-14151
16.769257,3397,-2231,-12587
16.784882,2737,-2306,-11421
16.800507,3153,-1873,-11978
16.816132,3553,-1245,-13795
16.831757,3753,-438,-15534
16.847382,3806,560,-15829
16.863007,2215,433,-14490
16.878632,178,-297,-11717
16.894257,-861,-75,-9369
16.909882,-1650,896,-10312
16.925507,-2215,1598,-13881
16.941132,-2504,1914,-15575
16.956757,-2379,1851,-14070
16.972382,-2381,937,-12737
16.988007,-2639,185,-12151
17.003632,-2307,408,-11683
17.019257,-2356,739,-13094
17.034882,-2682,912,-14915
17.050507,-2341,882,-14222
17.066132,-2134,341,-12647
17.081757,-2075,-133,-12304
17.097382,-1690,-152,-12595
17.113007,-1370,-74,-12881
17.128632,-974,-136,-13324
17.144257,-402,-413,-13494
17.160035,83,-690,-12915
17.175660,548,-858,-12842
17.191285,778,-975,-13801
17.206910,860,-983,-13963
17.222535,1010,-1068,-13204
17.238160,903,-1275,-12897
17.253785,703,-1220,-12679
17.269410,533,-888,-12720
17.285035,83,-597,-13549
17.300660,-215,-431,-13720
17.316285,-217,-452,-13013
17.331910,-347,-629,-12744
17.347535,-381,-693,-12833
17.363160,-225,-604,-13045
17.378785,-165,-567,-13488
17.394410,-113,-634,-13497
17.410035,39,-749,-12922
17.425660,139,-841,-12703
17.441285,89,-774,-13169
17.456910,-6,-567,-13481
17.472535,-34,-497,-13324
17.488160,-97,-613,-13140
17.503785,-133,-674,-12881
17.519410,-90,-636,-12835
17.535035,-192,-572,-13319
17.550660,-274,-527,-13536
17.566285,-220,-581,-13147
17.581910,-167,-702,-12790
17.597535,-68,-738,-12887
17.613160,1,-643,-13249
17.628785,49,-552,-13451
17.644410,96,-561,-13449
17.660035,44,-641,-13161
17.675660,23,-709,-12710
17.691285,-67,-684,-12942
17.706910,-270,-567,-13453
17.722535,-272,-499,-13256
17.738160,-240,-599,-13029
17.753785,-247,-708,-13011
17.769410,-52,-675,-12879
17.785035,39,-633,-13215
17.800660,8,-620,-13583
17.816285,148,-631,-13286
17.831910,135,-715,-12963
17.847535,-13,-693,-12901
17.863160,-65,-543,-13099
17.878785,-231,-472,-13470
17.894410,-359,-472,-13361
17.910035,-368,-536,-12953
17.925660,-415,-641,-12817
17.941285,-322,-624,-12949
17.956910,-215,-545,-13288
17.972535,-163,-533,-13329
17.988160,-20,-579,-13067
18.003785,8,-659,-13090
18.019410,28,-652,-13092
18.035035,105,-579,-13181
18.050660,-4,-604,-13520
18.066285,-27,-649,-13267
18.081910,48,-690,-12863
18.097535,-61,-754,-13044
18.113160,-63,-677,-13120
18.128785,-18,-561,-13128
18.144410,-131,-563,-13331
18.159882,-102,-592,-13185
18.175507,1,-624,-12919
18.191132,10,-652,-13070
18.206757,46,-627,-13354
18.222382,58,-616,-13311
18.238007,32,-672,-13022
18.253632,0,-731,-13001
18.269257,-24,-709,-13131
18.284882,49,-602,-13186
18.300507,-29,-558,-13422
18.316132,-211,-565,-13295
18.331757,-202,-534,-12838
18.347382,-388,-536,-13008
18.363007,-561,-470,-13258
18.378632,-406,-374,-13006
18.394257,-695,-354,-12999
18.409882,-1011,-59,-13529
18.425507,-1029,307,-13924
18.441132,-1672,426,-13672
18.456757,-2436,712,-13235
18.472382,-3086,917,-12912
18.488007,-3734,1349,-12931
18.503632,-3971,2049,-13349
18.519257,-4575,2035,-12945
18.534882,-4011,2681,-13022
18.550507,-3216,3303,-13697
18.566132,-4245,2794,-12992
18.581757,-3443,3388,-12797
18.597382,-1861,4113,-12604
18.613007,-1099,3672,-11903
18.628632,107,3047,-12470
18.644257,1635,2397,-12892
18.659882,3847,1808,-12913
18.675507,5027,871,-13395
18.691132,5156,-686,-14279
18.706757,5988,-1450,-13920
18.722382,7108,-1752,-13111
18.738007,7374,-2872,-14572
18.753632,6699,-3538,-13824
18.769257,5751,-3675,-10890
18.784882,5256,-3793,-11662
18.800507,5258,-3386,-13569
18.816132,5126,-2716,-14069
18.831757,4926,-2059,-14208
18.847382,4960,-2063,-13801
18.863007,5294,-2634,-12961
18.878632,6099,-2654,-11953
18.894257,6877,-2131,-12553
18.909882,7009,-845,-14265
18.925507,6445,1083,-14581
18.941132,4990,1856,-14099
18.956757,3579,1989,-12474
18.972382,2896,2499,-10542
18.988007,2310,2928,-11754
19.003632,1965,3888,-14763
19.019257,1310,5204,-15833
19.034882,-83,5567,-15463
19.050507,-1552,4481,-15413
19.066132,-4011,2856,-13276
19.081757,-5902,2771,-9467
19.097382,-4852,4274,-9060
19.113007,-4138,3728,-11287
19.128632,-5180,1630,-11826
19.144257,-5512,1017,-12360
19.159882,-4352,987,-12915
19.175507,-3116,730,-12363
19.191132,-3530,1108,-12922
19.206757,-2863,1476,-11885
19.222382,-1922,546,-10962
19.238007,-3013,96,-11890
19.253632,-2002,-2,-12503
19.269257,-1234,-29,-14867
19.284882,-1884,421,-14879
19.300507,-156,-299,-12013
19.316132,41,-925,-13131
19.331757,-665,-674,-14147
19.347382,771,-559,-12563
19.363007,499,-400,-13576
19.378632,-288,-443,-14735
19.394257,117,-681,-13099
19.409882,-177,-840,-11613
19.425507,-204,-933,-12165
19.441132,24,-759,-13620
19.456757,73,-504,-13676
19.472382,367,-568,-13620
19.488007,226,-743,-14067
19.503632,321,-775,-12770
19.519257,619,-881,-12337
19.534882,157,-936,-13594
19.550507,251,-720,-13149
19.566132,544,-625,-12878
19.581757,-68,-756,-13777
19.597382,19,-699,-12981
19.613007,319,-631,-12549
19.628632,-209,-695,-13649
19.644257,-142,-606,-13399
19.659882,119,-549,-12681
19.675507,-272,-645,-13104
19.691132,-359,-567,-13197
19.706757,-136,-409,-12899
19.722382,-325,-431,-13336
19.738007,-429,-484,-13444
19.753632,-181,-497,-12792
19.769257,-197,-550,-12944
19.784882,-234,-593,-13428
19.800507,41,-572,-13186
19.816132,69,-604,-13208
19.831757,-75,-663,-13295
19.847382,24,-649,-12844
19.863007,-6,-600,-12949
19.878632,-113,-554,-13429
19.894257,-52,-499,-13344
19.909882,-34,-502,-13124
19.925507,-67,-584,-13156
19.941132,-118,-609,-13111
19.956757,-156,-543,-12981
19.972382,-261,-511,-13194
19.988007,-392,-500,-13299
20.003632,-281,-463,-12944
20.019257,-252,-456,-13056
20.034882,-397,-468,-13360
20.050507,-277,-454,-13054
20.066132,-217,-486,-13061
20.081757,-308,-565,-13285
20.097382,-115,-577,-12913
20.113007,-95,-563,-12903
20.128632,-293,-533,-13306
20.144257,-134,-495,-13301
20.159882,-170,-427,-13163
20.175507,-509,-390,-13219
20.191132,-208,-515,-13279
20.206757,74,-536,-13129
20.222382,-167,-511,-13145
20.238007,-175,-570,-13133
20.253632,-100,-554,-13028
20.269257,-134,-536,-13204
20.284882,-83,-550,-13263
20.300507,-29,-592,-13124
20.316132,-38,-629,-13085
20.331757,-61,-597,-13126
20.347382,-70,-567,-13138
20.363007,-72,-579,-13158
20.378632,-90,-575,-13192
20.394257,-52,-558,-13092
20.409882,0,-568,-13056
20.425507,-18,-590,-13208
20.441132,-13,-586,-13219
20.456757,-54,-579,-13172
20.472382,-95,-597,-13092
20.488007,-42,-616,-13017
20.503632,-50,-608,-13176
20.519257,1,-574,-13229
20.534882,41,-583,-13165
20.550507,-34,-629,-13156
20.566132,-34,-615,-13085
20.581757,-70,-572,-13090
20.597382,-84,-554,-13138
20.613007,-43,-552,-13201
20.628632,-72,-572,-13199
20.644257,-31,-595,-13040
20.659882,-24,-604,-13124
20.675507,-92,-602,-13240
20.691132,-43,-592,-13113
20.706757,-74,-584,-13185
20.722382,-124,-572,-13165
20.738007,-34,-554,-13019
20.753632,-84,-550,-13226
20.769257,-113,-534,-13269
20.784882,-74,-522,-13094
20.800507,-142,-552,-13122
20.816132,-117,-559,-13113
20.831757,-95,-547,-13129
20.847382,-120,-545,-13195
20.863007,-72,-536,-13183
20.878632,-115,-549,-13188
20.894257,-150,-547,-13054
20.909882,-113,-517,-13060
20.925507,-186,-511,-13281
20.941132,-136,-525,-13136
20.956757,-93,-527,-13081
20.972382,-213,-525,-13240
20.988007,-143,-518,-13054
21.003632,-120,-515,-13111
21.019257,-231,-518,-13304
21.034882,-134,-508,-13120
21.050507,-152,-529,-13058
21.066132,-174,-556,-13135
21.081757,264,-390,-13685
21.097382,128,-308,-14286
21.113007,-486,-561,-13110
21.128632,-608,-638,-11583
21.144257,-884,-434,-12324
21.159882,-1074,-263,-13819
21.175507,-713,-295,-13654
21.191132,-324,-609,-12449
21.206757,-133,-829,-12246
21.222382,-109,-658,-13179
21.238007,-109,-434,-13667
21.253632,-56,-502,-13588
21.269257,85,-695,-13504
21.284882,333,-756,-13033
21.300507,423,-733,-12847
21.316132,146,-638,-13413
21.331757,-213,-467,-13438
21.347382,-520,-383,-13090
21.363007,-825,-295,-13086
21.378632,-1145,-113,-12933
21.394257,-1654,101,-12851
21.409882,-2132,442,-13145
21.425507,-2563,776,-13297
21.441132,-3289,1203,-13128
21.456757,-4123,2001,-13390
21.472382,-4834,2897,-13851
21.488007,-5625,3803,-14010
21.503632,-6111,4795,-14042
21.519257,-5750,5527,-13420
21.534882,-4798,6029,-13061
21.550507,-3391,6006,-12367
21.566132,-1672,5299,-10414
21.581757,1228,4713,-10912
21.597382,4965,3217,-13442
21.613007,8143,808,-13751
21.628632,10775,-1168,-13744
21.644257,11362,-3130,-14438
21.659882,10838,-4127,-13567
21.675507,10811,-4593,-13863
21.691132,10529,-5587,-14599
21.706757,10946,-6394,-12576
21.722382,10721,-6614,-11121
21.738007,9000,-4953,-11435
21.753632,7477,-2297,-12329
21.769257,5733,-509,-13006
21.784882,4269,890,-12669
21.800507,3422,1930,-13540
21.816132,2733,2601,-14574
21.831757,2264,3278,-13924
21.847382,1514,3803,-13922
21.863007,446,4081,-13976
21.878632,-820,4179,-13251
21.894257,-1932,4044,-13094
21.909882,-2870,3612,-13203
21.925507,-4004,3231,-12847
21.941132,-4989,2924,-12135
21.956757,-5850,2619,-12287
21.972382,-6621,2433,-13335
21.988007,-6534,2167,-12794
22.003632,-5932,1810,-11696
22.019257,-5253,1555,-12799
22.034882,-4291,1294,-13815
22.050507,-3057,826,-13310
22.066132,-1765,324,-13322
22.081757,-588,-181,-13906
22.097382,473,-724,-13779
22.113007,1165,-1179,-13219
22.128632,1576,-1582,-13158
22.144257,1856,-1836,-13344
22.159882,1840,-1848,-13010
22.175507,1723,-1786,-12728
22.191132,1462,-1638,-13069
22.206757,917,-1354,-13149
22.222382,383,-1091,-12865
22.238007,-52,-925,-13020
22.253632,-379,-786,-13285
22.269257,-640,-702,-13147
22.284882,-863,-645,-12999
22.300507,-986,-592,-13081
22.316132,-1027,-570,-13101
22.331757,-933,-563,-13019
22.347382,-774,-604,-13086
22.363007,-592,-638,-13170
22.378632,-406,-675,-13106
22.394257,-318,-745,-13167
22.409882,-258,-788,-13251
22.425507,-140,-843,-13208
22.441132,-61,-924,-13217
22.456757,-27,-984,-13190
22.472382,26,-1029,-13161
22.488007,71,-1056,-13167
22.503632,78,-1070,-13094
22.519257,19,-1038,-13001
22.534882,-22,-966,-12999
22.550507,-40,-904,-13111
22.566132,-156,-865,-13147
22.581757,-284,-841,-13004
22.597382,-377,-818,-13017
22.613007,-484,-790,-13245
22.628632,-556,-775,-13183
22.644257,-556,-763,-13033
22.659882,-525,-722,-13186
22.675507,-484,-740,-13190
22.691132,-406,-800,-13031
22.706757,-333,-818,-13095
22.722382,-252,-840,-13136
22.738007,-170,-875,-13065
22.753632,-152,-888,-13117
22.769257,-156,-877,-13208
22.784882,-186,-852,-13224
22.800507,-233,-852,-13174
22.816132,-309,-850,-13153
22.831757,-415,-808,-13158
22.847382,-468,-779,-13040
22.863007,-490,-772,-12965
22.878632,-472,-759,-13024
22.894257,-411,-775,-13020
22.909882,-411,-793,-13069
22.925507,-345,-809,-13129
22.941132,-199,-874,-13108
22.956757,-186,-897,-13219
22.972382,-183,-891,-13263
22.988007,-52,-918,-13213
23.003632,7,-945,-13313
23.019257,-49,-941,-13285
23.034882,-129,-906,-13099
23.050507,-302,-879,-12931
23.066132,-531,-874,-12785
23.081757,-783,-754,-12299
23.097382,-791,-952,-11051
23.113007,-118,-1318,-11237
23.128632,296,-518,-14015
23.144257,282,317,-16025
23.159882,683,199,-15711
23.175507,264,-208,-14272
23.191132,-615,-897,-11817
23.206757,-586,-1097,-10039
23.222382,-517,-633,-11899
23.238007,-404,-154,-15036
23.253632,212,-40,-15217
23.269257,474,-429,-13453
23.284882,151,-933,-12133
23.300507,-211,-975,-11785
23.316132,-434,-517,-12767
23.331757,-577,-183,-14415
23.347382,-479,-338,-14252
23.363007,66,-693,-12215
23.378632,385,-883,-11892
23.394257,176,-675,-13440
23.409882,96,-250,-13992
23.425507,-163,-195,-13902
23.441132,-650,-583,-13247
23.456757,-438,-868,-11605
23.472382,21,-811,-11928
23.488007,116,-559,-14172
23.503632,314,-325,-14635
23.519257,292,-397,-13536
23.534882,-231,-733,-12515
23.550507,-393,-840,-11846
23.566132,-325,-558,-12729
23.581757,-277,-350,-13729
23.597382,728,-370,-13758
23.613007,598,-599,-14183
23.628632,-677,-790,-12715
23.644257,-567,-490,-11494
23.659882,-716,-258,-13840
23.675507,-461,-402,-14567
23.691132,362,-658,-12679
23.706757,216,-754,-12237
23.722382,-77,-467,-13281
23.738007,-843,-54,-13977
23.753632,-1652,212,-13361
23.769257,-2040,451,-12583
23.784882,-3020,1190,-13551
23.800507,-4370,2051,-14895
23.816132,-5209,2533,-13374
23.831757,-5437,2730,-11776
23.847382,-5239,2805,-12944
23.863007,-4239,3138,-12663
23.878632,-3284,3544,-11797
23.894257,-2981,4256,-13717
23.909882,-2157,4919,-14543
23.925507,-1145,4633,-12624
23.941132,323,3960,-11663
23.956757,2237,3224,-11985
23.972382,3931,2560,-12331
23.988007,5454,2351,-14320
24.003632,6092,1985,-16770
24.019257,6343,932,-15459
24.034882,6086,-342,-12458
24.050507,5292,-2027,-11840
24.066132,5345,-3407,-10356
24.081757,5942,-3629,-9939
24.097382,6767,-3879,-14108
24.113007,7643,-3345,-16193
24.128632,7343,-2988,-14906
24.144257,6413,-4270,-12542
24.159882,5829,-4829,-10317
24.175507,5563,-3911,-11087
24.191132,5961,-2409,-13085
24.206757,6508,-1507,-15134
24.222382,6559,-759,-15218
24.238007,6093,-20,-13079
24.253632,5052,283,-12417
24.269257,3887,1340,-12835
24.284882,2922,2408,-13569
24.300507,2280,3099,-13994
24.316132,1249,3463,-13738
24.331757,-184,3183,-12649
24.347382,-1159,3072,-11435
24.363007,-2256,2999,-12785
24.378632,-2911,2928,-13733
24.394257,-2747,3137,-13188
24.409882,-3000,3001,-14326
24.425507,-3622,2380,-14254
24.441132,-4175,1887,-12381
24.456757,-4596,1646,-12374
24.472382,-4373,1314,-13310
24.488007,-3464,894,-13317
24.503632,-2459,541,-13122
24.519257,-1754,274,-13272
24.534882,-1511,21,-13449
24.550507,-1465,-292,-13069
24.566132,-1159,-583,-12685
24.581757,-592,-756,-13074
24.597382,-167,-1004,-13176
24.613007,233,-1274,-11804
24.628632,582,-1143,-10735
24.644257,344,-740,-13086
24.659882,53,-25,-16143
24.675507,283,466,-15783
24.691132,196,-147,-13952
24.706757,-320,-1041,-12119
24.722382,-302,-1279,-10603
24.738007,-181,-893,-11792
24.753632,-127,-342,-14574
24.769257,198,-149,-15281
24.784882,396,-472,-13547
24.800507,387,-941,-11858
24.816132,73,-1027,-12038
24.831757,-218,-570,-12972
24.847382,-172,-208,-13972
24.863007,-222,-425,-14360
24.878632,57,-775,-12592
24.894257,458,-949,-11638
24.909882,198,-847,-13324
24.925507,55,-445,-14152
24.941132,57,-340,-13715
24.956757,-247,-733,-13179
24.972382,-77,-983,-11947
24.988007,287,-834,-11996
25.003632,249,-518,-13910
25.019257,269,-279,-14629
25.034882,208,-413,-13570
25.050507,-45,-841,-12415
25.066132,-174,-1033,-12022
25.081757,-145,-768,-12606
25.097382,16,-447,-13836
25.113007,157,-440,-14349
25.128632,278,-652,-13210
25.144257,305,-838,-12172
25.160004,30,-795,-12713
25.175629,-145,-517,-13433
25.191254,-77,-379,-13606
25.206879,-83,-572,-13433
25.222504,71,-788,-12660
25.238129,264,-784,-12465
25.253754,132,-602,-13469
25.269379,-56,-418,-13999
25.285004,-168,-475,-13347
25.300629,-218,-743,-12540
25.316254,-111,-840,-12378
25.331879,62,-616,-12986
25.347504,173,-374,-13879
25.363129,124,-379,-14024
25.378754,-27,-584,-13056
25.394379,-165,-758,-12235
25.410004,-288,-724,-12599
25.425629,-258,-518,-13415
25.441254,-77,-386,-13794
25.456879,12,-497,-13510
25.472504,28,-681,-12794
25.488129,-27,-679,-12610
25.503754,-159,-520,-13176
25.519379,-222,-395,-13597
25.535004,-245,-445,-13428
25.550629,-129,-624,-12820
25.566254,49,-706,-12647
25.581879,14,-583,-13256
25.597504,-52,-415,-13658
25.613129,-175,-442,-13511
25.628754,-349,-620,-12949
25.644379,-258,-702,-12381
25.660004,-133,-609,-12824
25.675629,-58,-442,-13683
25.691254,82,-368,-13772
25.706879,-9,-504,-13292
25.722504,-167,-670,-12654
25.738129,-217,-666,-12563
25.753754,-277,-543,-13203
25.769379,-175,-438,-13606
25.785004,-42,-490,-13444
25.800629,0,-638,-12954
25.816254,26,-690,-12744
25.831879,-102,-586,-13172
25.847504,-220,-427,-13438
25.863129,-204,-450,-13281
25.878754,-174,-622,-12963
25.894379,-11,-677,-12701
25.910004,92,-611,-13108
25.925629,26,-509,-13638
25.941254,0,-492,-13454
25.956879,-117,-634,-13020
25.972504,-202,-718,-12633
25.988129,-92,-643,-12713
26.003754,-31,-538,-13451
26.019379,48,-468,-13697
26.035004,116,-533,-13272
26.050629,1,-691,-12899
26.066254,-61,-706,-12715
26.081879,-86,-595,-13024
26.097504,-99,-538,-13495
26.113129,32,-572,-13385
26.128754,121,-686,-13019
26.144379,121,-733,-12915
26.159882,83,-629,-13122
26.175507,-17,-552,-13392
26.191132,-86,-572,-13306
26.206757,-75,-645,-12967
26.222382,14,-711,-12792
26.238007,117,-659,-13017
26.253632,132,-559,-13513
26.269257,69,-550,-13577
26.284882,8,-633,-13029
26.300507,-43,-749,-12710
26.316132,-49,-734,-12867
26.331757,37,-584,-13195
26.347382,87,-517,-13547
26.363007,96,-568,-13403
26.378632,80,-652,-12892
26.394257,-15,-699,-12822
26.409882,-88,-633,-13104
26.425507,-81,-549,-13317
26.441132,-9,-583,-13308
26.456757,82,-665,-13072
26.472382,112,-695,-12965
26.488007,71,-625,-13129
26.503632,-6,-520,-13317
26.519257,-115,-527,-13336
26.534882,-163,-597,-13010
26.550507,-72,-633,-12765
26.566132,-13,-629,-13108
26.581757,3,-550,-13424
26.597382,39,-490,-13374
26.613007,-59,-574,-13222
26.628632,-158,-659,-12870
26.644257,-127,-622,-12749
26.659882,-117,-547,-13194
26.675507,-45,-495,-13483
26.691132,44,-524,-13326
26.706757,-20,-595,-13054
26.722382,-86,-604,-12899
26.738007,-142,-558,-13058
26.753632,-200,-492,-13286
26.769257,-172,-497,-13288
26.784882,-120,-595,-13088
26.800507,-15,-638,-12901
26.816132,16,-590,-13154
26.831757,-95,-520,-13444
26.847382,-125,-495,-13222
26.863007,-156,-565,-13015
26.878632,-193,-629,-12945
26.894257,-79,-590,-12951
26.909882,-29,-520,-13347
26.925507,-58,-506,-13510
26.941132,-49,-563,-13120
26.956757,-136,-641,-12883
26.972382,-193,-633,-12944
26.988007,-138,-558,-13120
27.003632,-72,-513,-13322
27.019257,-17,-531,-13324
27.034882,-17,-577,-13115
27.050507,-22,-599,-12924
27.066132,-58,-575,-13086
27.081757,-170,-534,-13353
27.097382,-134,-549,-13161
27.113007,-34,-611,-12990
27.128632,-31,-641,-13097
27.144257,26,-592,-13103
27.159882,37,-538,-13263
27.175507,-63,-558,-13410
27.191132,-67,-616,-13017
27.206757,-38,-641,-12769
27.222382,-108,-615,-13170
27.238007,-31,-556,-13356
27.253632,133,-538,-13217
27.269257,35,-599,-13304
27.284882,-74,-641,-13072
27.300507,-15,-633,-12751
27.316132,-56,-616,-13170
27.331757,-83,-581,-13440
27.347382,46,-574,-13115
27.363007,99,-640,-13042
27.378632,37,-672,-13154
27.394257,3,-624,-13097
27.409882,-9,-586,-13140
27.425507,-67,-602,-13285
27.441132,-52,-636,-13081
27.456757,71,-634,-12883
27.472382,51,-627,-13217
27.488007,21,-592,-13370
27.503632,55,-554,-13194
27.519257,-61,-608,-13136
27.534882,-86,-652,-12929
27.550507,-13,-638,-12944
27.566132,-18,-609,-13290
27.581757,48,-568,-13358
27.597382,35,-593,-13245
27.613007,-24,-633,-12992
27.628632,5,-625,-12920
27.644257,-102,-602,-13235
27.659882,-86,-545,-13188
27.675507,46,-583,-13161
27.691132,-20,-663,-13274
27.706757,17,-616,-12958
27.722382,12,-583,-13056
27.738007,-154,-579,-13390
27.753632,-115,-543,-13119
27.769257,-68,-593,-12992
27.784882,-92,-627,-13138
27.800507,-4,-572,-13117
27.816132,3,-549,-13226
27.831757,-54,-547,-13326
27.847382,-81,-579,-13163
27.863007,-125,-633,-12926
27.878632,-99,-608,-12953
27.894257,-100,-552,-13288
27.909882,-75,-524,-13308
27.925507,14,-550,-13122
27.941132,-59,-602,-13178
27.956757,-124,-570,-13045
27.972382,-97,-529,-12994
27.988007,-143,-542,-13308
28.003632,-111,-543,-13238
28.019257,-11,-572,-12988
28.034882,-36,-606,-13126
28.050507,-67,-572,-13222
28.066132,-74,-540,-13172
28.081757,-131,-547,-13186
28.097382,-142,-583,-13122
28.113007,-99,-600,-12992
28.128632,-33,-568,-13058
28.144257,-22,-545,-13322
28.159882,-61,-536,-13322
28.175507,-42,-565,-13028
28.191132,-83,-613,-13008
28.206757,-134,-604,-13086
28.222382,-47,-547,-13069
28.238007,-29,-549,-13294
28.253632,-45,-583,-13294
28.269257,21,-575,-12978
28.284882,-27,-588,-13067
28.300507,-102,-602,-13226
28.316132,-58,-563,-13129
28.331757,-59,-568,-13170
28.347382,-42,-613,-13149
28.363007,32,-613,-13040
28.378632,10,-608,-13149
28.394257,-31,-586,-13261
28.409882,-54,-590,-13183
28.425507,-65,-641,-13031
28.441132,-27,-641,-13022
28.456757,-20,-609,-13174
28.472382,21,-575,-13211
28.488007,49,-559,-13238
28.503632,-49,-611,-13224
28.519257,-47,-641,-12951
28.534882,-17,-633,-13001
28.550507,-67,-620,-13283
28.566132,26,-574,-13161
28.581757,82,-586,-13185
28.597382,8,-631,-13240
28.613007,62,-602,-12974
28.628632,8,-584,-13147
28.644257,-106,-579,-13278
28.659882,-15,-586,-13042
28.675507,-33,-647,-13147
28.691132,-29,-650,-13128
28.706757,58,-613,-13092
28.722382,-38,-609,-13340
28.738007,-40,-597,-13158
28.753632,-6,-604,-13022
28.769257,-59,-620,-13151
28.784882,32,-575,-13044
28.800507,53,-577,-13226
28.816132,0,-624,-13354
28.831757,32,-616,-13070
28.847382,-83,-643,-13078
28.863007,-149,-647,-13094
28.878632,-77,-595,-13067
28.894257,-90,-593,-13263
28.909882,-9,-584,-13201
28.925507,53,-572,-13072
28.941132,-22,-559,-13117
28.956757,-58,-518,-13181
28.972382,-138,-511,-13247
28.988007,-127,-525,-13083
29.003632,-65,-588,-13042
29.019257,-97,-661,-13179
29.034882,16,-643,-13045
29.050507,69,-645,-13210
29.066132,-68,-641,-13369
29.081757,-50,-572,-12949
29.097382,-68,-550,-12963
29.113007,-181,-517,-13242
29.128632,-88,-450,-13126
29.144257,-50,-475,-13219
29.159882,-102,-558,-13290
29.175507,-58,-618,-13036
29.191132,-61,-665,-13011
29.206757,-90,-659,-13186
29.222382,-84,-615,-13192
29.238007,-45,-595,-13092
29.253632,12,-592,-13122
29.269257,-4,-581,-13192
29.284882,-25,-517,-13111
29.300507,-65,-488,-13163
29.316132,-149,-536,-13226
29.331757,-120,-550,-13019
29.347382,-83,-583,-13053
29.363007,-90,-634,-13236
29.378632,-18,-616,-13186
29.394257,1,-618,-13210
29.409882,-40,-645,-13145
29.425507,-13,-627,-12970
29.441132,-31,-586,-13110
29.456757,-42,-513,-13235
29.472382,14,-500,-13179
29.488007,-33,-558,-13190
29.503632,-77,-609,-13108
29.519257,-70,-665,-13069
29.534882,-125,-656,-13165
29.550507,-84,-608,-13106
29.566132,-2,-609,-13126
29.581757,21,-604,-13222
29.597382,123,-581,-13090
29.613007,116,-590,-13178
29.628632,-18,-595,-13297
29.644257,-24,-588,-13024
29.659882,-88,-620,-13067
29.675507,-174,-643,-13178
29.691132,-29,-613,-12992
29.706757,-11,-634,-13274
29.722382,-49,-633,-13315
29.738007,130,-584,-12904
29.753632,57,-620,-13203
29.769257,-27,-574,-13231
29.784882,108,-509,-12837
29.800507,-67,-574,-13513
29.816132,1,-574,-13101
29.831757,78,-749,-12124
29.847382,-259,-920,-13463
29.863007,294,-658,-13731
29.878632,823,-654,-12940
29.894257,471,-970,-13315
29.909882,403,-881,-13263
29.925507,414,-565,-13038
29.941132,205,-511,-13297
29.956757,-18,-649,-13440
29.972382,-99,-674,-12712
29.988007,55,-568,-12437
30.003632,-15,-499,-13554
30.019257,-270,-400,-13665
30.034882,-345,-292,-12906
30.050507,-590,-368,-13206
30.066132,-743,-418,-13197
30.081757,-363,-350,-12763
30.097382,-175,-336,-13378
30.113007,-300,-358,-13595
30.128632,10,-563,-12878
30.144257,66,-645,-12913
30.159882,-447,-481,-13301
30.175507,-354,-422,-13113
30.191132,26,-479,-13245
30.206757,69,-720,-13504
30.222382,37,-733,-12913
30.238007,141,-731,-12649
30.253632,-45,-718,-13267
30.269257,-186,-13,-13328
30.284882,632,-29,-12981
30.300507,730,-647,-13195
30.316132,80,-604,-13354
30.331757,130,-492,-13095
30.347382,98,-486,-12960
30.363007,-233,-588,-13103
30.378632,-525,-604,-13161
30.394257,-509,-383,-13149
30.409882,-195,-402,-13378
30.425507,-47,-650,-13295
30.441132,-149,-616,-12722
30.456757,-13,-425,-12640
30.472382,191,-472,-13429
30.488007,83,-604,-13745
30.503632,44,-599,-13294
30.519257,30,-602,-13133
30.534882,-92,-827,-13042
30.550507,-45,-884,-12842
30.566132,194,-590,-12969
30.581757,167,-490,-13360
30.597382,-118,-472,-13488
30.613007,-234,-365,-13360
30.628632,-179,-475,-13190
30.644257,30,-659,-12926
30.659882,289,-713,-12849
30.675507,307,-718,-13103
30.691132,146,-675,-13290
30.706757,-24,-577,-13281
30.722382,-122,-558,-13190
30.738007,-42,-600,-13060
30.753632,73,-602,-13017
30.769257,144,-556,-13060
30.784882,51,-520,-13229
30.800507,-118,-497,-13279
30.816132,-13,-502,-13113
30.831757,83,-597,-13111
30.847382,10,-638,-13192
30.863007,-15,-549,-13222
30.878632,-24,-506,-13219
30.894257,-38,-534,-13070
30.909882,-24,-559,-12988
30.925507,-56,-579,-13065
30.941132,0,-556,-13081
30.956757,105,-554,-13120
30.972382,73,-565,-13279
30.988007,110,-554,-13395
31.003632,42,-618,-13103
31.019257,53,-602,-13047
31.034882,323,-670,-13520
31.050507,133,-766,-13247
31.066132,-161,-520,-13054
31.081757,-186,-384,-13454
31.097382,-149,-456,-13299
31.113007,66,-431,-13054
31.128632,28,-433,-13135
31.144257,-156,-484,-13110
31.159851,23,-547,-13044
31.175476,71,-654,-13178
31.191101,-67,-697,-13153
31.206726,12,-584,-13042
31.222351,-97,-472,-13213
31.237976,-181,-456,-13267
31.253601,-61,-474,-13220
31.269226,-111,-461,-13215
31.284851,-38,-447,-13079
31.300476,-8,-509,-13067
31.316101,-138,-517,-13101
31.331726,-109,-452,-13179
31.347351,-138,-477,-13328
31.362976,-131,-513,-13158
31.378601,35,-554,-13001
31.394226,-33,-636,-13095
; 31 stopping logging: shutdown: switched off
