;Title, http://www.gcdataconcepts.com, x2-2,Kionix KXRB5-2050
;Version, 1102, Build date, Oct  6 2015,  SN:CCDC10023F56AE8
;Start_time, 2007-01-05, 21:35:37.789
;Temperature, -999.00, deg C,  Vbat, 4160, mv
;Gain, high
;SampleRate, 64,Hz
;Deadband, 0, counts
;DeadbandTimeout, 0,sec
;Headers, time,Ax,Ay,Az
0.358887,-31,-358,-12545
0.374512,-118,-367,-13026
0.390137,-99,-388,-13497
0.405762,376,-283,-13008
0.421387,348,-317,-13344
0.437012,119,-418,-13599
0.452637,199,-422,-12874
0.483887,5,-465,-12869
0.499512,-142,-477,-13236
0.515137,112,-386,-12992
0.530762,280,-311,-13078
0.546387,292,-304,-13538
0.562012,285,-327,-13367
0.577637,214,-367,-12983
0.593262,-50,-481,-13154
0.608887,-202,-559,-13099
0.624512,14,-511,-12792
0.640137,105,-470,-13231
0.655762,192,-417,-13463
0.671387,457,-334,-13099
0.687012,294,-388,-13326
0.702637,53,-461,-13322
0.718262,99,-436,-12801
0.733887,-74,-486,-13028
0.749512,-56,-492,-13254
0.765137,242,-409,-13063
0.780762,228,-440,-13320
0.796387,192,-470,-13419
0.812012,192,-463,-13083
0.827637,21,-500,-13053
0.843262,-63,-509,-13113
0.858887,49,-456,-12974
0.874512,205,-402,-13101
0.890137,267,-379,-13397
0.905762,314,-354,-13274
0.921387,285,-374,-13126
0.937012,33,-484,-13260
0.952637,-72,-540,-13028
0.968262,19,-500,-12878
0.983887,-25,-506,-13267
0.999512,142,-465,-13215
1.015137,367,-367,-13106
1.030762,228,-383,-13429
1.046387,194,-404,-13190
1.062012,158,-422,-12933
1.077637,-59,-484,-13179
1.093262,37,-454,-13067
1.108887,191,-424,-13033
1.124512,164,-443,-13358
1.140137,258,-408,-13306
1.155762,210,-417,-13154
1.171387,42,-452,-13156
1.187012,3,-429,-13072
1.202637,1,-434,-13028
1.218262,110,-409,-13106
1.233887,210,-354,-13285
1.249512,258,-334,-13270
1.265137,303,-334,-13161
1.280762,135,-411,-13274
1.296387,17,-459,-13103
1.312012,39,-436,-12910
1.327637,-42,-454,-13208
1.343262,89,-409,-13203
1.358887,274,-325,-13085
1.374512,185,-361,-13369
1.390137,182,-365,-13283
1.405762,166,-338,-13024
1.421387,12,-399,-13122
1.437012,33,-418,-13131
1.452637,123,-390,-13085
1.468262,174,-377,-13204
1.483887,216,-367,-13299
1.499512,191,-363,-13220
1.515137,142,-358,-13079
1.530762,7,-395,-13129
1.546387,-52,-408,-13113
1.562012,85,-359,-13022
1.577637,132,-352,-13224
1.593262,198,-340,-13285
1.608887,291,-313,-13156
1.624512,167,-402,-13254
1.640137,103,-475,-13170
1.655762,74,-436,-13006
1.671387,-11,-427,-13110
1.687012,103,-415,-13147
1.702637,192,-370,-13211
1.718262,171,-350,-13285
1.733887,198,-342,-13178
1.749512,119,-395,-13167
1.765137,57,-440,-13113
1.780762,101,-427,-13035
1.796387,78,-442,-13160
1.812012,157,-422,-13174
1.827637,246,-390,-13203
1.843262,182,-400,-13278
1.858887,149,-384,-13145
1.874512,62,-413,-13144
1.890137,10,-454,-13128
1.905762,91,-413,-13019
1.921387,87,-395,-13203
1.937012,169,-397,-13251
1.952637,292,-390,-13144
1.968262,187,-445,-13254
1.983887,123,-484,-13147
1.999512,116,-483,-13031
2.015137,32,-483,-13160
2.030762,92,-440,-13104
2.046387,153,-406,-13167
2.062012,149,-381,-13288
2.077637,221,-343,-13149
2.093262,139,-397,-13194
2.108887,64,-449,-13186
2.124512,130,-463,-13020
2.140137,85,-499,-13156
2.155762,133,-468,-13204
2.171387,230,-433,-13151
2.187012,173,-436,-13260
2.202637,174,-411,-13199
2.218262,123,-417,-13126
2.233887,19,-418,-13142
2.249512,73,-406,-13094
2.265137,103,-429,-13151
2.280762,148,-402,-13190
2.296387,226,-379,-13204
2.312012,180,-424,-13233
2.327637,174,-442,-13106
2.343262,117,-450,-13101
2.358887,12,-456,-13153
2.374512,117,-408,-13049
2.390137,160,-397,-13176
2.405762,123,-386,-13265
2.421387,214,-329,-13124
2.437012,135,-354,-13210
2.452637,62,-402,-13183
2.468262,130,-406,-13011
2.483887,55,-443,-13142
2.499512,110,-450,-13174
2.515137,232,-411,-13151
2.530762,173,-397,-13261
2.546387,191,-363,-13176
2.562012,128,-370,-13145
2.577637,19,-404,-13153
2.593262,89,-372,-13054
2.608887,60,-383,-13161
2.624512,96,-395,-13188
2.640137,224,-367,-13165
2.655762,173,-400,-13276
2.671387,180,-406,-13129
2.687012,148,-395,-13079
2.702637,32,-420,-13197
2.718262,105,-384,-13078
2.733887,123,-368,-13138
2.749512,133,-368,-13265
2.765137,226,-340,-13169
2.780762,146,-379,-13199
2.796387,99,-413,-13163
2.812012,96,-408,-13063
2.827637,39,-438,-13126
2.843262,137,-424,-13106
2.858887,183,-388,-13167
2.874512,162,-400,-13258
2.890137,232,-402,-13153
2.905762,144,-404,-13179
2.921387,60,-411,-13169
2.937012,108,-384,-13045
2.952637,60,-400,-13183
2.968262,98,-427,-13210
2.983887,210,-408,-13101
2.999512,157,-436,-13229
3.015137,153,-450,-13220
3.030762,164,-443,-13110
3.046387,82,-443,-13126
3.062012,91,-402,-13099
3.077637,110,-411,-13160
3.093262,146,-404,-13197
3.109009,189,-372,-13153
3.124634,132,-417,-13208
3.140259,135,-436,-13165
3.155884,119,-443,-13108
3.171509,58,-474,-13154
3.187134,135,-445,-13129
3.202759,160,-433,-13163
3.218384,162,-431,-13188
3.234009,226,-395,-13161
3.249634,149,-413,-13217
3.265259,110,-422,-13119
3.280884,121,-417,-13069
3.296509,35,-449,-13201
3.312134,117,-429,-13120
3.327759,189,-418,-13151
3.343384,110,-445,-13286
3.359009,171,-422,-13101
3.374634,166,-449,-13124
3.390259,78,-477,-13258
3.405884,142,-411,-13058
3.421509,130,-392,-13099
3.437134,96,-397,-13260
3.452759,178,-372,-13176
3.468384,141,-408,-13186
3.484009,96,-422,-13169
3.499634,112,-413,-13128
3.515259,78,-445,-13147
3.530884,139,-438,-13085
3.546509,160,-434,-13197
3.562134,146,-424,-13229
3.577759,232,-368,-13099
3.593384,146,-379,-13238
3.609009,74,-400,-13195
3.624634,144,-397,-13044
3.640259,69,-429,-13213
3.655884,98,-397,-13165
3.671509,171,-368,-13104
3.687134,101,-417,-13269
3.702759,166,-402,-13161
3.718384,151,-400,-13110
3.734009,76,-424,-13183
3.749634,167,-400,-13094
3.765259,146,-409,-13156
3.780884,130,-384,-13179
3.796509,183,-343,-13140
3.812134,108,-379,-13240
3.827759,112,-377,-13153
3.843384,107,-395,-13128
3.859009,32,-445,-13197
3.874634,121,-427,-13095
3.890259,160,-422,-13156
3.905884,148,-406,-13210
3.921509,203,-374,-13163
3.937134,151,-390,-13210
3.952759,133,-377,-13136
3.968384,116,-384,-13135
3.984009,48,-415,-13179
3.999634,124,-388,-13081
4.015259,116,-406,-13197
4.030884,98,-422,-13229
4.046509,208,-402,-13099
4.062134,114,-443,-13247
4.077759,108,-425,-13176
4.093384,208,-388,-13020
4.108887,78,-429,-13244
4.124512,135,-399,-13210
4.140137,221,-393,-13090
4.155762,99,-438,-13238
4.171387,132,-411,-13176
4.187012,123,-425,-13095
4.202637,62,-452,-13153
4.218262,110,-436,-13167
4.233887,101,-449,-13176
4.249512,180,-413,-13122
4.265137,219,-388,-13206
4.280762,141,-420,-13240
4.296387,199,-409,-13056
4.312012,130,-420,-13158
4.327637,57,-443,-13213
4.343262,166,-411,-13058
4.358887,85,-420,-13204
4.374512,94,-434,-13211
4.390137,210,-431,-13110
4.405762,92,-456,-13254
4.421387,139,-427,-13124
4.437012,192,-413,-13076
4.452637,67,-445,-13253
4.468262,169,-409,-13097
4.483887,194,-404,-13131
4.499512,108,-433,-13270
4.515137,196,-402,-13097
4.530762,123,-422,-13154
4.546387,55,-447,-13206
4.562012,137,-424,-13072
4.577637,92,-433,-13185
4.593262,126,-415,-13195
4.608887,194,-384,-13115
4.624512,144,-415,-13229
4.640137,158,-422,-13176
4.655762,148,-393,-13083
4.671387,91,-390,-13174
4.687012,121,-399,-13156
4.702637,144,-425,-13117
4.718262,123,-445,-13186
4.733887,121,-418,-13197
4.749512,114,-409,-13161
4.765137,121,-418,-13151
4.780762,119,-413,-13190
4.796387,121,-404,-13165
4.812012,167,-383,-13120
4.827637,157,-386,-13208
4.843262,146,-384,-13178
4.858887,162,-377,-13106
4.874512,117,-425,-13219
4.890137,107,-443,-13161
4.905762,124,-417,-13054
4.921387,74,-422,-13220
4.937012,103,-411,-13206
4.952637,187,-370,-13056
4.968262,139,-377,-13206
4.983887,112,-393,-13244
4.999512,171,-383,-13069
5.015137,149,-395,-13138
5.030762,114,-406,-13215
5.046387,149,-413,-13104
5.062012,158,-431,-13122
5.077637,119,-434,-13226
5.093262,103,-420,-13167
5.108887,130,-386,-13095
5.124512,110,-388,-13195
5.140137,101,-409,-13201
5.155762,174,-393,-13095
5.171387,160,-404,-13190
5.187012,141,-408,-13211
5.202637,199,-384,-13088
5.218262,151,-422,-13160
5.233887,107,-438,-13192
5.249512,132,-420,-13106
5.265137,98,-438,-13149
5.280762,110,-402,-13186
5.296387,119,-375,-13186
5.312012,101,-395,-13154
5.327637,137,-395,-13124
5.343262,98,-434,-13222
5.358887,110,-442,-13136
5.374512,183,-427,-13074
5.390137,103,-468,-13288
5.405762,141,-431,-13161
5.421387,196,-384,-13053
5.437012,66,-425,-13279
5.452637,130,-408,-13129
5.468262,151,-393,-13042
5.483887,33,-429,-13254
5.499512,162,-418,-13140
5.515137,180,-427,-13101
5.530762,108,-434,-13224
5.546387,174,-409,-13156
5.562012,126,-440,-13138
5.577637,133,-440,-13135
5.593262,148,-424,-13170
5.608887,82,-434,-13178
5.624512,160,-388,-13081
5.640137,121,-392,-13229
5.655762,71,-417,-13222
5.671387,194,-388,-13024
5.687012,110,-425,-13213
5.702637,80,-442,-13226
5.718262,203,-411,-13047
5.733887,117,-442,-13195
5.749512,137,-420,-13194
5.765137,214,-381,-13128
5.780762,116,-400,-13204
5.796387,144,-372,-13120
5.812012,124,-383,-13154
5.827637,69,-422,-13190
5.843262,151,-399,-13092
5.858887,99,-424,-13203
5.874512,124,-433,-13178
5.890137,205,-404,-13095
5.905762,101,-434,-13245
5.921387,133,-408,-13145
5.937012,153,-377,-13083
5.952637,64,-413,-13224
5.968262,157,-381,-13133
5.983887,164,-367,-13135
5.999512,110,-399,-13203
6.015137,167,-395,-13149
6.030762,108,-408,-13183
6.046387,112,-409,-13117
6.062012,160,-400,-13138
6.077637,103,-429,-13249
6.093262,169,-420,-13095
6.108887,148,-400,-13140
6.124512,83,-409,-13253
6.140137,192,-399,-13078
6.155762,133,-406,-13156
6.171387,66,-417,-13242
6.187012,155,-397,-13076
6.202637,112,-408,-13158
6.218262,99,-431,-13222
6.233887,162,-424,-13108
6.249512,151,-440,-13147
6.265137,144,-443,-13199
6.280762,128,-409,-13151
6.296387,133,-397,-13122
6.312012,141,-395,-13192
6.327637,110,-402,-13222
6.343262,162,-399,-13101
6.358887,160,-406,-13156
6.374512,89,-456,-13244
6.390137,157,-454,-13072
6.405762,142,-427,-13144
6.421387,76,-440,-13260
6.437012,182,-406,-13058
6.452637,146,-393,-13172
6.468262,78,-420,-13297
6.483887,173,-388,-13054
6.499512,144,-400,-13131
6.515137,114,-443,-13269
6.530762,162,-420,-13108
6.546387,133,-409,-13117
6.562012,119,-420,-13238
6.577637,119,-418,-13192
6.593262,135,-413,-13090
6.608887,117,-420,-13174
6.624512,78,-440,-13242
6.640137,182,-411,-13072
6.655762,189,-408,-13149
6.671387,89,-440,-13301
6.687012,182,-397,-13072
6.702637,169,-411,-13128
6.718262,49,-470,-13304
6.733887,153,-418,-13045
6.749512,139,-420,-13115
6.765137,49,-458,-13303
6.780762,178,-383,-13070
6.796387,160,-374,-13128
6.812012,83,-427,-13251
6.827637,185,-406,-13076
6.843262,148,-413,-13138
6.858887,96,-424,-13194
6.874512,171,-409,-13101
6.890137,139,-420,-13176
6.905762,133,-415,-13169
6.921387,166,-409,-13122
6.937012,107,-424,-13190
6.952637,117,-425,-13153
6.968262,130,-408,-13135
6.983887,103,-390,-13169
6.999512,151,-406,-13149
7.015137,153,-420,-13179
7.030762,144,-395,-13161
7.046387,160,-402,-13136
7.062012,114,-429,-13170
7.077637,110,-411,-13129
7.093262,114,-399,-13136
7.108887,101,-406,-13176
7.124512,148,-404,-13149
7.140137,137,-415,-13170
7.155762,128,-422,-13158
7.171387,157,-406,-13142
7.187012,108,-402,-13174
7.202637,117,-395,-13126
7.218262,133,-393,-13142
7.233887,110,-400,-13188
7.249512,157,-390,-13131
7.265137,135,-409,-13172
7.280762,105,-424,-13192
7.296387,137,-406,-13111
7.312012,96,-411,-13160
7.327637,117,-411,-13181
7.343262,173,-404,-13131
7.358887,124,-400,-13153
7.374512,146,-395,-13156
7.390137,162,-425,-13179
7.405762,116,-436,-13169
7.421387,130,-408,-13106
7.437012,105,-408,-13167
7.452637,99,-413,-13178
7.468262,141,-402,-13119
7.483887,110,-406,-13169
7.499512,124,-409,-13186
7.515137,135,-406,-13144
7.530762,94,-409,-13154
7.546387,132,-413,-13165
7.562012,130,-433,-13165
7.577637,112,-434,-13140
7.593262,148,-402,-13151
7.608887,132,-406,-13204
7.624512,139,-431,-13124
7.640137,160,-429,-13120
7.655762,101,-438,-13233
7.671387,126,-429,-13113
7.687012,155,-413,-13115
7.702637,74,-425,-13278
7.718262,148,-393,-13111
7.733887,182,-384,-13088
7.749512,67,-440,-13279
7.765137,149,-425,-13119
7.780762,192,-404,-13090
7.796387,112,-438,-13251
7.812012,166,-422,-13129
7.827637,155,-406,-13122
7.843262,108,-418,-13220
7.858887,148,-404,-13151
7.874512,144,-418,-13138
7.890137,133,-434,-13170
7.905762,116,-411,-13186
7.921387,123,-406,-13165
7.937012,166,-399,-13120
7.952637,123,-408,-13204
7.968262,108,-411,-13172
7.983887,157,-392,-13086
7.999512,103,-420,-13204
8.015137,119,-420,-13154
8.030762,155,-395,-13090
8.046387,80,-409,-13226
8.062012,148,-383,-13156
8.077637,183,-384,-13124
8.093262,103,-427,-13213
8.108887,158,-413,-13106
8.124512,148,-418,-13136
8.140137,101,-424,-13224
8.155762,162,-402,-13128
8.171387,126,-408,-13158
8.187012,107,-395,-13183
8.202637,155,-404,-13133
8.218262,107,-420,-13169
8.233887,114,-399,-13161
8.249512,146,-415,-13163
8.265137,132,-420,-13167
8.280762,153,-386,-13136
8.296387,117,-404,-13176
8.312012,107,-420,-13160
8.327637,146,-409,-13144
8.343262,105,-418,-13181
8.358887,139,-392,-13090
8.374512,173,-392,-13149
8.390137,105,-433,-13244
8.405762,155,-400,-13086
8.421387,142,-406,-13158
8.437012,92,-447,-13233
8.452637,173,-409,-13076
8.468262,108,-418,-13178
8.483887,83,-434,-13208
8.499512,180,-399,-13081
8.515137,135,-417,-13179
8.530762,130,-411,-13192
8.546387,155,-399,-13113
8.562012,103,-424,-13144
8.577637,117,-417,-13179
8.593262,101,-425,-13170
8.608887,124,-404,-13088
8.624512,171,-397,-13178
8.640137,110,-443,-13269
8.655762,155,-408,-13072
8.671387,155,-397,-13138
8.687012,64,-450,-13269
8.702637,148,-417,-13058
8.718262,126,-406,-13129
8.733887,64,-433,-13258
8.749512,176,-404,-13090
8.765137,133,-408,-13170
8.780762,94,-413,-13236
8.796387,174,-399,-13097
8.812012,121,-420,-13163
8.827637,107,-424,-13204
8.843262,153,-406,-13131
8.858887,119,-417,-13163
8.874512,141,-415,-13188
8.890137,149,-413,-13169
8.905762,119,-424,-13142
8.921387,135,-409,-13149
8.937012,98,-409,-13186
8.952637,98,-417,-13124
8.968262,133,-415,-13126
8.983887,112,-413,-13204
8.999512,160,-408,-13126
9.015137,176,-424,-13140
9.030762,99,-424,-13228
9.046387,135,-406,-13099
9.062012,149,-417,-13119
9.077637,99,-422,-13245
9.093262,149,-399,-13120
9.108887,128,-388,-13115
9.124512,83,-408,-13217
9.140137,158,-431,-13133
9.155762,151,-427,-13122
9.171387,105,-406,-13181
9.187012,130,-392,-13154
9.202637,148,-399,-13144
9.218262,158,-406,-13174
9.233887,151,-402,-13181
9.249512,148,-422,-13129
9.265137,151,-425,-13129
9.280762,110,-417,-13201
9.296387,137,-427,-13142
9.312012,167,-404,-13115
9.327637,112,-390,-13215
9.343262,130,-393,-13158
9.358887,137,-390,-13115
9.374512,112,-415,-13165
9.390137,162,-427,-13133
9.405762,126,-434,-13167
9.421387,108,-427,-13156
9.437012,171,-395,-13120
9.452637,112,-417,-13220
9.468262,126,-422,-13133
9.483887,171,-402,-13103
9.499512,85,-424,-13238
9.515137,148,-404,-13101
9.530762,164,-390,-13117
9.546387,87,-422,-13267
9.562012,180,-406,-13115
9.577637,148,-404,-13145
9.593262,78,-422,-13204
9.608887,149,-411,-13079
9.624512,107,-454,-13181
9.640137,132,-452,-13178
9.655762,173,-386,-13095
9.671387,99,-399,-13190
9.687012,166,-395,-13126
9.702637,167,-392,-13129
9.718262,94,-431,-13204
9.733887,155,-415,-13101
9.749512,126,-427,-13172
9.765137,98,-449,-13201
9.780762,164,-425,-13086
9.796387,117,-415,-13192
9.812012,121,-393,-13185
9.827637,144,-390,-13092
9.843262,94,-404,-13165
9.858887,135,-392,-13167
9.874512,123,-409,-13154
9.890137,128,-429,-13151
9.905762,183,-417,-13149
9.921387,108,-420,-13206
9.937012,124,-406,-13117
9.952637,149,-409,-13138
9.968262,64,-431,-13260
9.983887,132,-388,-13070
9.999512,160,-406,-13097
10.015137,82,-459,-13297
10.030762,160,-392,-13106
10.046387,171,-372,-13104
10.062012,103,-417,-13256
10.077637,162,-399,-13104
10.093262,132,-400,-13115
10.109009,87,-411,-13222
10.124634,132,-399,-13144
10.140259,116,-400,-13126
10.155884,126,-386,-13183
10.171509,128,-386,-13215
10.187134,130,-386,-13128
10.202759,167,-365,-13101
10.218384,101,-395,-13231
10.234009,110,-392,-13131
10.249634,182,-359,-13086
10.265259,126,-408,-13285
10.280884,146,-406,-13161
10.296509,164,-374,-13070
10.312134,71,-406,-13238
10.327759,119,-384,-13131
10.343384,153,-361,-13095
10.359009,103,-393,-13229
10.374634,169,-388,-13133
10.390259,176,-386,-13131
10.405884,135,-397,-13190
10.421509,173,-402,-13120
10.437134,144,-417,-13149
10.452759,130,-399,-13170
10.468384,142,-397,-13136
10.484009,107,-402,-13145
10.499634,141,-397,-13149
10.515259,164,-420,-13161
10.530884,144,-395,-13147
10.546509,146,-368,-13151
10.562134,119,-402,-13186
10.577759,151,-404,-13119
10.593384,169,-395,-13131
10.609009,123,-408,-13192
10.624634,166,-404,-13104
10.640259,178,-415,-13149
10.655884,124,-417,-13220
10.671509,162,-377,-13085
10.687134,157,-390,-13129
10.702759,119,-400,-13222
10.718384,187,-365,-13104
10.734009,189,-392,-13136
10.749634,160,-397,-13213
10.765259,201,-363,-13135
10.780884,180,-368,-13133
10.796509,158,-367,-13165
10.812134,158,-356,-13153
10.827759,130,-354,-13156
10.843384,142,-352,-13154
10.859009,142,-354,-13160
10.874634,171,-349,-13136
10.890259,187,-350,-13153
10.905884,153,-340,-13179
10.921509,205,-320,-13113
10.937134,210,-331,-13160
10.952759,169,-349,-13199
10.968384,219,-338,-13095
10.984009,194,-349,-13158
10.999634,162,-383,-13203
11.015259,216,-379,-13111
11.030884,180,-372,-13165
11.046509,185,-367,-13163
11.062134,235,-359,-13115
11.077759,192,-383,-13183
11.093384,226,-363,-13151
11.108887,257,-327,-13128
11.124512,216,-336,-13174
11.140137,239,-333,-13145
11.155762,233,-345,-13165
11.171387,224,-352,-13178
11.187012,257,-336,-13133
11.202637,244,-329,-13186
11.218262,253,-311,-13179
11.233887,266,-304,-13126
11.249512,246,-334,-13185
11.265137,274,-338,-13176
11.280762,294,-329,-13138
11.296387,271,-345,-13156
11.312012,283,-322,-13133
11.327637,271,-315,-13161
11.343262,271,-331,-13160
11.358887,319,-306,-13122
11.374512,294,-318,-13194
11.390137,330,-300,-13153
11.405762,367,-270,-13140
11.421387,294,-322,-13219
11.437012,346,-315,-13097
11.452637,380,-329,-13136
11.468262,319,-383,-13240
11.483887,382,-306,-13070
11.499512,391,-288,-13156
11.515137,349,-338,-13265
11.530762,394,-290,-13083
11.546387,362,-290,-13160
11.562012,357,-306,-13201
11.577637,432,-268,-13067
11.593262,408,-299,-13195
11.608887,405,-309,-13210
11.624512,455,-279,-13069
11.640137,449,-288,-13158
11.655762,426,-274,-13224
11.671387,421,-242,-13111
11.687012,441,-247,-13099
11.702637,441,-275,-13213
11.718262,460,-272,-13144
11.733887,503,-249,-13086
11.749512,494,-254,-13228
11.765137,514,-250,-13185
11.780762,541,-236,-13086
11.796387,526,-227,-13181
11.812012,535,-215,-13174
11.827637,541,-236,-13115
11.843262,535,-265,-13186
11.858887,537,-238,-13186
11.874512,548,-208,-13133
11.890137,551,-197,-13156
11.905762,566,-165,-13145
11.921387,585,-181,-13136
11.937012,598,-211,-13195
11.952637,626,-165,-13183
11.968262,630,-134,-13149
11.983887,619,-149,-13156
11.999512,642,-136,-13124
12.015137,655,-172,-13151
12.030762,649,-190,-13188
12.046387,655,-106,-13163
12.062012,671,-102,-13188
12.077637,678,-120,-13154
12.093262,653,-104,-13094
12.109009,655,-118,-13119
12.124634,724,-86,-13170
12.140259,753,-84,-13217
12.155884,735,-58,-13153
12.171509,726,-9,-13106
12.187134,687,-102,-13156
12.202759,707,-95,-13099
12.218384,762,-24,-13144
12.234009,765,-49,-13267
12.249634,780,-9,-13147
12.265259,774,-24,-13101
12.280884,742,-43,-13185
12.296509,758,53,-13108
12.312134,805,80,-13128
12.327759,817,53,-13253
12.343384,790,51,-13176
12.359009,765,55,-13099
12.374634,764,69,-13172
12.390259,794,85,-13154
12.405884,805,87,-13108
12.421509,807,74,-13204
12.437134,815,99,-13213
12.452759,803,157,-13104
12.468384,796,135,-13138
12.484009,796,135,-13176
12.499634,803,226,-13117
12.515259,833,244,-13158
12.530884,842,207,-13194
12.546509,817,189,-13119
12.562134,821,191,-13145
12.577759,848,226,-13203
12.593384,839,271,-13133
12.609009,821,257,-13136
12.624634,839,232,-13185
12.640259,828,282,-13144
12.655884,826,289,-13169
12.671509,819,274,-13174
12.687134,790,333,-13135
12.702759,808,349,-13172
12.718384,782,333,-13119
12.734009,751,323,-13097
12.749634,817,326,-13215
12.765259,849,396,-13178
12.780884,824,398,-13128
12.796509,805,337,-13201
12.812134,751,398,-13140
12.827759,730,460,-13101
12.843384,737,417,-13161
12.859009,696,410,-13124
12.874634,719,458,-13131
12.890259,758,449,-13183
12.905884,719,423,-13161
12.921509,723,457,-13176
12.937134,726,501,-13188
12.952759,705,496,-13163
12.968384,683,489,-13138
12.984009,644,516,-13122
12.999634,646,516,-13178
13.015259,623,482,-13178
13.030884,573,485,-13115
13.046509,607,544,-13179
13.062134,623,557,-13185
13.077759,587,510,-13126
13.093384,601,574,-13172
13.108887,589,628,-13165
13.124512,567,553,-13147
13.140137,583,542,-13201
13.155762,537,583,-13181
13.171387,503,541,-13154
13.187012,474,510,-13135
13.202637,437,566,-13115
13.218262,460,564,-13163
13.233887,432,505,-13160
13.249512,428,546,-13158
13.265137,478,573,-13167
13.280762,412,526,-13117
13.296387,421,596,-13190
13.312012,451,599,-13190
13.327637,341,453,-13092
13.343262,321,489,-13183
13.358887,332,541,-13176
13.374512,294,430,-13099
13.390137,317,432,-13204
13.405762,314,492,-13213
13.421387,258,448,-13124
13.437012,248,451,-13151
13.452637,262,501,-13174
13.468262,251,457,-13108
13.483887,249,424,-13145
13.499512,269,448,-13235
13.515137,244,376,-13156
13.530762,224,357,-13117
13.546387,232,401,-13170
13.562012,189,332,-13133
13.577637,180,324,-13135
13.593262,205,367,-13186
13.608887,176,310,-13161
13.624512,151,287,-13122
13.640137,162,308,-13160
13.655762,167,257,-13167
13.671387,182,226,-13113
13.687012,192,264,-13174
13.702637,173,201,-13181
13.718262,158,173,-13110
13.733887,153,214,-13176
13.749512,162,67,-13144
13.765137,162,53,-13131
13.780762,158,144,-13219
13.796387,189,7,-13097
13.812012,169,33,-13145
13.827637,167,85,-13231
13.843262,214,-43,-13049
13.858887,178,37,-13169
13.874512,185,35,-13263
13.890137,260,-97,-13088
13.905762,244,-45,-13181
13.921387,232,-70,-13183
13.937012,230,-129,-13036
13.952637,203,-104,-13185
13.968262,246,-138,-13236
13.983887,307,-172,-13079
13.999512,335,-200,-13133
14.015137,373,-217,-13233
14.030762,417,-209,-13156
14.046387,416,-222,-13126
14.062012,382,-217,-13199
14.077637,385,-267,-13169
14.093262,389,-324,-13110
14.108887,364,-283,-13181
14.124512,408,-302,-13183
14.140137,482,-343,-13126
14.155762,514,-340,-13188
14.171387,553,-367,-13195
14.187012,592,-342,-13135
14.202637,615,-327,-13169
14.218262,642,-349,-13186
14.233887,655,-379,-13160
14.249512,658,-445,-13147
14.265137,683,-445,-13131
14.280762,676,-433,-13190
14.296387,696,-427,-13167
14.312012,774,-409,-13081
14.327637,764,-433,-13201
14.343262,796,-411,-13178
14.358887,908,-359,-13049
14.374512,907,-374,-13213
14.390137,928,-390,-13203
14.405762,1015,-374,-13056
14.421387,1010,-409,-13206
14.437012,1024,-422,-13211
14.452637,1042,-397,-13085
14.468262,1030,-425,-13145
14.483887,1080,-399,-13183
14.499512,1115,-375,-13147
14.515137,1137,-368,-13140
14.530762,1144,-336,-13197
14.546387,1164,-317,-13151
14.562012,1246,-240,-13069
14.577637,1267,-270,-13217
14.593262,1269,-309,-13215
14.608887,1315,-247,-13069
14.624512,1324,-317,-13178
14.640137,1335,-300,-13154
14.655762,1355,-192,-13076
14.671387,1358,-222,-13235
14.687012,1374,-179,-13181
14.702637,1373,-125,-13106
14.718262,1367,-156,-13192
14.733887,1390,-67,-13113
14.749512,1424,-24,-13126
14.765137,1462,-50,-13226
14.780762,1480,12,-13158
14.796387,1481,16,-13142
14.812012,1481,-8,-13163
14.827637,1478,32,-13113
14.843262,1469,60,-13151
14.858887,1464,82,-13185
14.874512,1473,96,-13136
14.890137,1462,101,-13147
14.905762,1451,142,-13176
14.921387,1446,198,-13140
14.937012,1442,251,-13124
14.952637,1464,264,-13161
14.968262,1446,262,-13154
14.983887,1423,283,-13138
14.999512,1439,287,-13181
15.015137,1440,299,-13179
15.030762,1421,328,-13142
15.046387,1380,344,-13165
15.062012,1340,348,-13147
15.077637,1310,374,-13099
15.093262,1296,419,-13163
15.109009,1305,458,-13176
15.124634,1285,473,-13124
15.140259,1287,458,-13199
15.155884,1273,446,-13190
15.171509,1190,460,-13086
15.187134,1212,496,-13153
15.202759,1205,485,-13172
15.218384,1133,455,-13103
15.234009,1157,467,-13176
15.249634,1128,457,-13211
15.265259,1076,462,-13138
15.280884,1048,494,-13126
15.296509,985,485,-13153
15.312134,973,487,-13144
15.327759,965,474,-13136
15.343384,957,466,-13190
15.359009,958,471,-13170
15.374634,933,430,-13120
15.390259,930,405,-13194
15.405884,919,389,-13190
15.421509,873,353,-13104
15.437134,840,360,-13151
15.452759,815,382,-13185
15.468384,776,326,-13128
15.484009,762,287,-13172
15.499634,767,299,-13197
15.515259,764,262,-13113
15.530884,760,233,-13136
15.546509,758,221,-13160
15.562134,755,192,-13124
15.577759,757,174,-13181
15.593384,755,124,-13185
15.609009,728,78,-13133
15.624634,717,62,-13178
15.640259,724,14,-13163
15.655884,705,-6,-13136
15.671509,703,-17,-13178
15.687134,751,-67,-13153
15.702759,774,-72,-13136
15.718384,774,-83,-13131
15.734009,810,-120,-13138
15.749634,814,-133,-13203
15.765259,830,-184,-13181
15.780884,846,-240,-13161
15.796509,837,-245,-13169
15.812134,871,-272,-13129
15.827759,878,-292,-13149
15.843384,910,-313,-13131
15.859009,980,-347,-13145
15.874634,985,-363,-13233
15.890259,1033,-404,-13144
15.905884,1057,-406,-13126
15.921509,1015,-379,-13224
15.937134,1089,-397,-13122
15.952759,1139,-433,-13126
15.968384,1126,-470,-13228
15.984009,1226,-484,-13126
15.999634,1287,-493,-13151
16.015259,1281,-502,-13235
16.030884,1342,-477,-13129
16.046509,1360,-465,-13144
16.062134,1371,-468,-13197
16.077759,1428,-463,-13160
16.093384,1435,-447,-13156
16.108887,1492,-409,-13124
16.124512,1553,-467,-13161
16.140137,1562,-524,-13194
16.155762,1619,-452,-13110
16.171387,1614,-456,-13167
16.187012,1619,-438,-13169
16.202637,1703,-327,-13083
16.218262,1719,-347,-13197
16.233887,1742,-340,-13192
16.249512,1787,-318,-13115
16.265137,1787,-377,-13174
16.280762,1801,-300,-13135
16.296387,1837,-249,-13124
16.312012,1883,-233,-13192
16.327637,1928,-167,-13210
16.343262,1924,-177,-13188
16.358887,1896,-133,-13101
16.374512,1910,-93,-13119
16.390137,1946,-109,-13179
16.405762,1951,-49,-13138
16.421387,1956,-13,-13172
16.437012,1953,8,-13181
16.452637,1946,35,-13135
16.468262,1960,26,-13156
16.483887,1953,101,-13131
16.499512,1962,167,-13156
16.515137,1987,149,-13211
16.530762,1930,187,-13153
16.546387,1894,214,-13147
16.562012,1905,205,-13170
16.577637,1856,248,-13126
16.593262,1846,307,-13133
16.608887,1855,319,-13163
16.624512,1823,299,-13147
16.640137,1824,323,-13160
16.655762,1810,385,-13163
16.671387,1765,419,-13149
16.687012,1748,412,-13176
16.702637,1703,401,-13174
16.718262,1656,396,-13145
16.733887,1644,405,-13151
16.749512,1589,421,-13133
16.765137,1562,426,-13154
16.780762,1567,433,-13179
16.796387,1512,421,-13129
16.812012,1487,432,-13176
16.827637,1462,451,-13185
16.843262,1401,435,-13101
16.858887,1406,444,-13169
16.874512,1398,398,-13183
16.890137,1351,312,-13131
16.905762,1324,333,-13172
16.921387,1278,342,-13124
16.937012,1256,305,-13110
16.952637,1264,278,-13190
16.968262,1251,249,-13178
16.983887,1224,224,-13160
16.999512,1196,176,-13167
17.015137,1171,158,-13144
17.030762,1158,174,-13138
17.046387,1167,126,-13153
17.062012,1185,58,-13197
17.077637,1194,32,-13203
17.093262,1187,-27,-13122
17.108887,1165,-63,-13136
17.124512,1178,-47,-13174
17.140137,1210,-95,-13131
17.155762,1180,-147,-13188
17.171387,1180,-158,-13174
17.187012,1230,-220,-13086
17.202637,1228,-256,-13183
17.218262,1262,-247,-13188
17.233887,1321,-265,-13106
17.249512,1312,-311,-13185
17.265137,1346,-392,-13176
17.280762,1387,-420,-13119
17.296387,1390,-392,-13172
17.312012,1433,-404,-13190
17.327637,1465,-442,-13170
17.343262,1508,-465,-13151
17.358887,1564,-488,-13147
17.374512,1560,-490,-13169
17.390137,1624,-475,-13131
17.405762,1689,-497,-13149
17.421387,1696,-527,-13208
17.437012,1778,-513,-13154
17.452637,1798,-520,-13190
17.468262,1781,-525,-13186
17.483887,1867,-490,-13072
17.499512,1894,-545,-13179
17.515137,1933,-575,-13204
17.530762,2030,-486,-13095
17.546387,2019,-492,-13203
17.562012,2039,-468,-13186
17.577637,2089,-404,-13101
17.593262,2085,-425,-13156
17.608887,2133,-386,-13149
17.624512,2176,-383,-13174
17.640137,2187,-374,-13151
17.655762,2237,-297,-13111
17.671387,2278,-299,-13213
17.687012,2285,-265,-13161
17.702637,2297,-229,-13108
17.718262,2315,-220,-13194
17.733887,2306,-127,-13138
17.749512,2315,-111,-13145
17.765137,2344,-118,-13220
17.780762,2331,-36,-13149
17.796387,2331,-36,-13149
17.812012,2344,-8,-13170
17.827637,2331,96,-13129
17.843262,2335,107,-13140
17.858887,2322,128,-13151
17.874512,2310,169,-13151
17.890137,2297,157,-13147
17.905762,2271,196,-13140
17.921387,2256,255,-13165
17.937012,2230,266,-13176
17.952637,2197,282,-13138
17.968262,2180,316,-13142
17.983887,2146,321,-13154
17.999512,2090,328,-13147
18.015137,2087,371,-13195
18.030762,2067,398,-13192
18.046387,2006,374,-13144
18.062012,1992,392,-13154
18.077637,1942,419,-13133
18.093262,1890,392,-13124
18.108887,1878,401,-13153
18.124512,1835,369,-13156
18.140137,1812,339,-13186
18.155762,1774,382,-13147
18.171387,1724,367,-13126
18.187012,1703,339,-13169
18.202637,1655,312,-13106
18.218262,1637,283,-13133
18.233887,1615,255,-13170
18.249512,1583,208,-13097
18.265137,1606,212,-13176
18.280762,1583,183,-13206
18.296387,1548,130,-13113
18.312012,1539,124,-13170
18.327637,1517,67,-13186
18.343262,1503,21,-13104
18.358887,1487,37,-13156
18.374512,1514,-33,-13192
18.390137,1548,-113,-13122
18.405762,1531,-108,-13135
18.421387,1548,-161,-13142
18.437012,1564,-200,-13144
18.452637,1562,-192,-13185
18.468262,1614,-259,-13128
18.483887,1601,-279,-13165
18.499512,1592,-313,-13186
18.515137,1683,-402,-13081
18.530762,1676,-400,-13174
18.546387,1687,-409,-13210
18.562012,1780,-454,-13113
18.577637,1774,-470,-13179
18.593262,1819,-486,-13181
18.608887,1903,-502,-13129
18.624512,1908,-518,-13190
18.640137,1974,-542,-13181
18.655762,2022,-559,-13140
18.671387,2014,-567,-13149
18.687012,2049,-583,-13151
18.702637,2092,-584,-13142
18.718262,2156,-534,-13119
18.733887,2224,-518,-13176
18.749512,2265,-556,-13236
18.765137,2317,-533,-13174
18.780762,2319,-509,-13145
18.796387,2328,-518,-13122
18.812012,2387,-483,-13092
18.827637,2426,-461,-13165
18.843262,2478,-420,-13194
18.858887,2524,-354,-13169
18.874512,2535,-358,-13151
18.890137,2537,-342,-13085
18.905762,2558,-315,-13104
18.921387,2612,-325,-13192
18.937012,2642,-268,-13199
18.952637,2637,-188,-13194
18.968262,2619,-143,-13149
18.983887,2608,-102,-13086
18.999512,2622,-95,-13104
19.015137,2640,-74,-13144
19.030762,2687,-31,-13213
19.046387,2703,12,-13235
19.062012,2653,58,-13188
19.077637,2621,83,-13181
19.093262,2567,153,-13081
19.108887,2528,210,-13045
19.124512,2571,199,-13185
19.140137,2540,201,-13181
19.155762,2515,219,-13169
19.171387,2547,253,-13251
19.187012,2435,319,-13140
19.202637,2358,339,-13067
19.218262,2380,333,-13142
19.233887,2303,341,-13086
19.249512,2292,349,-13124
19.265137,2335,362,-13253
19.280762,2247,357,-13176
19.296387,2190,376,-13149
19.312012,2174,376,-13197
19.327637,2089,314,-13115
19.343262,2055,307,-13094
19.358887,2049,321,-13151
19.374512,2008,291,-13176
19.390137,1989,308,-13203
19.405762,1964,296,-13188
19.421387,1906,237,-13145
19.437012,1864,216,-13106
19.452637,1844,148,-13111
19.468262,1830,105,-13172
19.483887,1840,107,-13153
19.499512,1847,67,-13165
19.515137,1815,39,-13217
19.530762,1801,-24,-13111
19.546387,1792,-88,-13099
19.562012,1769,-90,-13188
19.577637,1806,-159,-13138
19.593262,1835,-202,-13190
19.608887,1815,-181,-13226
19.624512,1842,-279,-13079
19.640137,1846,-327,-13129
19.655762,1844,-300,-13217
19.671387,1930,-368,-13133
19.687012,1972,-397,-13170
19.702637,1976,-404,-13213
19.718262,2012,-470,-13119
19.733887,2019,-497,-13119
19.749512,2039,-520,-13174
19.765137,2110,-524,-13126
19.780762,2178,-495,-13117
19.796387,2219,-556,-13219
19.812012,2265,-604,-13226
19.827637,2322,-558,-13106
19.843262,2321,-570,-13153
19.858887,2319,-600,-13208
19.874512,2439,-577,-13054
19.890137,2510,-604,-13142
19.905762,2505,-599,-13285
19.921387,2605,-495,-13097
19.937012,2637,-504,-13138
19.952637,2597,-542,-13244
19.968262,2669,-486,-13067
19.983887,2699,-497,-13113
19.999512,2726,-468,-13199
20.015137,2808,-383,-13126
20.030762,2824,-367,-13188
20.046387,2833,-331,-13176
20.062012,2862,-327,-13117
20.077637,2858,-324,-13153
20.093262,2867,-240,-13135
20.108887,2905,-202,-13160
20.124512,2913,-138,-13178
20.140137,2908,-74,-13138
20.155762,2912,-86,-13142
20.171387,2872,-29,-13128
20.187012,2871,14,-13154
20.202637,2894,46,-13185
20.218262,2876,114,-13170
20.233887,2874,123,-13188
20.249512,2835,146,-13126
20.265137,2774,169,-13081
20.280762,2746,199,-13156
20.296387,2706,267,-13153
20.312012,2696,280,-13135
20.327637,2694,271,-13208
20.343262,2631,294,-13192
20.358887,2567,333,-13129
20.374512,2558,358,-13140
20.390137,2505,332,-13122
20.405762,2444,321,-13135
20.421387,2431,328,-13183
20.437012,2374,291,-13156
20.452637,2337,316,-13176
20.468262,2317,348,-13158
20.483887,2264,289,-13110
20.499512,2242,266,-13197
20.515137,2190,212,-13160
20.530762,2126,160,-13095
20.546387,2122,223,-13201
20.562012,2103,189,-13145
20.577637,2087,119,-13122
20.593262,2089,119,-13226
20.608887,2065,16,-13126
20.624512,2049,-45,-13126
20.640137,2040,-59,-13174
20.655762,2015,-109,-13117
20.671387,1992,-70,-13219
20.687012,2046,-124,-13186
20.702637,2083,-236,-13117
20.718262,2028,-252,-13181
20.733887,2064,-315,-13085
20.749512,2092,-345,-13149
20.765137,2101,-342,-13251
20.780762,2205,-411,-13092
20.796387,2197,-461,-13142
20.812012,2167,-513,-13217
20.827637,2260,-531,-13092
20.843262,2294,-509,-13147
20.858887,2310,-531,-13208
20.874512,2401,-579,-13115
20.890137,2447,-624,-13144
20.905762,2462,-624,-13194
20.921387,2510,-590,-13131
20.937012,2547,-590,-13115
20.952637,2576,-608,-13174
20.968262,2626,-622,-13192
20.983887,2701,-611,-13140
20.999512,2774,-579,-13142
21.015137,2806,-579,-13179
21.030762,2847,-552,-13142
21.046387,2892,-515,-13119
21.062012,2899,-522,-13174
21.077637,2938,-497,-13163
21.093262,2983,-447,-13120
21.108887,2997,-411,-13151
21.124512,3040,-359,-13165
21.140137,3088,-336,-13161
21.155762,3092,-322,-13174
21.171387,3088,-290,-13176
21.187012,3097,-243,-13135
21.202637,3092,-167,-13090
21.218262,3108,-118,-13142
21.233887,3128,-90,-13169
21.249512,3110,-47,-13122
21.265137,3122,-45,-13192
21.280762,3112,-13,-13197
21.296387,3049,69,-13099
21.312012,3047,105,-13165
21.327637,3030,157,-13170
21.343262,2958,205,-13092
21.358887,2980,194,-13161
21.374512,2963,210,-13178
21.390137,2905,262,-13149
21.405762,2892,283,-13176
21.421387,2803,294,-13133
21.437012,2751,323,-13131
21.452637,2753,296,-13160
21.468262,2681,285,-13111
21.483887,2638,349,-13151
21.499512,2613,317,-13183
21.515137,2565,274,-13135
21.530762,2537,301,-13167
21.546387,2472,262,-13163
21.562012,2426,257,-13145
21.577637,2417,251,-13154
21.593262,2367,194,-13135
21.608887,2339,194,-13183
21.624512,2321,119,-13149
21.640137,2278,78,-13124
21.655762,2267,74,-13181
21.671387,2262,-24,-13106
21.687012,2237,-15,-13142
21.702637,2226,-27,-13201
21.718262,2230,-142,-13104
21.733887,2215,-159,-13158
21.749512,2219,-199,-13179
21.765137,2247,-275,-13092
21.780762,2249,-279,-13167
21.796387,2267,-299,-13186
21.812012,2315,-354,-13111
21.827637,2319,-409,-13161
21.843262,2330,-452,-13176
21.858887,2390,-495,-13104
21.874512,2424,-533,-13142
21.890137,2451,-534,-13178
21.905762,2503,-549,-13119
21.921387,2547,-570,-13149
21.937012,2596,-590,-13185
21.952637,2662,-606,-13138
21.968262,2687,-609,-13153
21.983887,2719,-624,-13156
21.999512,2774,-645,-13136
22.015137,2815,-652,-13160
22.030762,2883,-602,-13151
22.046387,2924,-581,-13154
22.062012,2990,-584,-13144
22.077637,3060,-554,-13113
22.093262,3053,-586,-13163
22.108887,3079,-561,-13133
22.124512,3110,-492,-13103
22.140137,3147,-490,-13174
22.155762,3229,-404,-13142
22.171387,3287,-379,-13161
22.187012,3299,-404,-13206
22.202637,3262,-331,-13136
22.218262,3249,-320,-13140
22.233887,3254,-229,-13110
22.249512,3263,-117,-13120
22.265137,3303,-131,-13204
22.280762,3288,-70,-13135
22.296387,3292,-63,-13142
22.312012,3276,-61,-13176
22.327637,3226,44,-13126
22.343262,3269,91,-13183
22.358887,3228,160,-13167
22.374512,3181,162,-13135
22.390137,3179,112,-13176
22.405762,3085,171,-13129
22.421387,3044,239,-13131
22.437012,3040,305,-13178
22.452637,3021,314,-13167
22.468262,2999,246,-13161
22.483887,2896,241,-13154
22.499512,2817,282,-13149
22.515137,2808,299,-13120
22.530762,2760,330,-13106
22.546387,2733,335,-13183
22.562012,2719,260,-13210
22.577637,2649,217,-13153
22.593262,2588,248,-13153
22.608887,2535,237,-13113
22.624512,2487,173,-13069
22.640137,2496,128,-13199
22.655762,2496,98,-13233
22.671387,2453,62,-13138
22.687012,2410,41,-13154
22.702637,2369,0,-13111
22.718262,2369,-61,-13083
22.733887,2403,-93,-13201
22.749512,2430,-159,-13204
22.765137,2426,-234,-13170
22.780762,2369,-247,-13169
22.796387,2358,-311,-13101
22.812012,2390,-340,-13151
22.827637,2444,-331,-13170
22.843262,2533,-438,-13106
22.858887,2515,-475,-13233
22.874512,2542,-504,-13199
22.890137,2613,-559,-13065
22.905762,2546,-513,-13201
22.921387,2603,-529,-13151
22.937012,2730,-581,-13044
22.952637,2740,-618,-13229
22.968262,2828,-636,-13228
22.983887,2903,-608,-13126
22.999512,2894,-643,-13174
23.015137,2951,-661,-13142
23.030762,2971,-663,-13136
23.046387,2996,-658,-13128
23.062012,3101,-606,-13124
23.077637,3133,-602,-13217
23.093262,3187,-556,-13135
23.108887,3244,-543,-13113
23.124512,3233,-577,-13197
23.140137,3287,-499,-13086
23.155762,3329,-495,-13135
23.171387,3346,-468,-13215
23.187012,3390,-352,-13136
23.202637,3410,-392,-13197
23.218262,3403,-350,-13154
23.233887,3413,-256,-13085
23.249512,3431,-261,-13161
23.265137,3428,-154,-13151
23.280762,3456,-108,-13181
23.296387,3460,-99,-13199
23.312012,3424,-22,-13135
23.327637,3412,-25,-13140
23.343262,3367,35,-13131
23.358887,3358,114,-13128
23.374512,3347,112,-13151
23.390137,3308,139,-13172
23.405762,3304,144,-13170
23.421387,3237,164,-13138
23.437012,3206,244,-13170
23.452637,3167,282,-13167
23.468262,3094,282,-13124
23.483887,3090,280,-13172
23.499512,3012,266,-13179
23.515137,2958,264,-13154
23.530762,2931,276,-13163
23.546387,2865,308,-13149
23.562012,2847,283,-13151
23.577637,2794,217,-13183
23.593262,2753,203,-13194
23.608887,2712,160,-13106
23.624512,2649,142,-13106
23.640137,2638,155,-13201
23.655762,2603,89,-13120
23.671387,2580,58,-13158
23.687012,2580,19,-13204
23.702637,2538,-61,-13069
23.718262,2508,-58,-13103
23.733887,2505,-118,-13138
23.749512,2506,-195,-13178
23.765137,2553,-204,-13185
23.780762,2578,-290,-13095
23.796387,2530,-329,-13199
23.812012,2574,-350,-13122
23.827637,2642,-409,-13049
23.843262,2599,-397,-13258
23.858887,2683,-450,-13144
23.874512,2778,-559,-13081
23.890137,2705,-572,-13290
23.905762,2747,-588,-13131
23.921387,2806,-597,-13045
23.937012,2796,-595,-13240
23.952637,2921,-647,-13160
23.968262,3010,-659,-13095
23.983887,2983,-638,-13222
23.999512,3046,-625,-13204
24.015137,3128,-613,-13106
24.030762,3142,-618,-13124
24.046387,3194,-647,-13186
24.062012,3256,-670,-13163
24.077637,3297,-645,-13117
24.093262,3354,-579,-13133
24.109009,3372,-538,-13154
24.124634,3415,-529,-13136
24.140259,3469,-506,-13156
24.155884,3440,-468,-13170
24.171509,3454,-438,-13128
24.187134,3526,-411,-13151
24.202759,3551,-329,-13167
24.218384,3558,-236,-13140
24.234009,3587,-217,-13167
24.249634,3578,-184,-13153
24.265259,3563,-165,-13151
24.280884,3558,-152,-13174
24.296509,3522,-36,-13131
24.312134,3531,16,-13179
24.327759,3526,7,-13204
24.343384,3462,64,-13099
24.359009,3474,96,-13117
24.374634,3483,148,-13163
24.390259,3433,214,-13144
24.405884,3399,221,-13192
24.421509,3326,230,-13204
24.437134,3253,223,-13154
24.452759,3187,199,-13124
24.468384,3106,210,-13101
24.484009,3103,249,-13138
24.499634,3083,244,-13174
24.515259,3049,224,-13165
24.530884,3046,280,-13199
24.546509,2937,289,-13156
24.562134,2830,274,-13113
24.577759,2821,253,-13151
24.593384,2794,133,-13117
24.609009,2780,73,-13158
24.624634,2778,51,-13206
24.640259,2738,8,-13126
24.655884,2708,28,-13153
24.671509,2680,7,-13160
24.687134,2653,-63,-13097
24.702759,2630,-102,-13169
24.718384,2612,-163,-13186
24.734009,2605,-245,-13108
24.749634,2610,-288,-13145
24.765259,2638,-320,-13195
24.780884,2699,-359,-13133
24.796509,2753,-393,-13124
24.812134,2774,-433,-13195
24.827759,2819,-479,-13172
24.843384,2842,-527,-13129
24.859009,2805,-563,-13181
24.874634,2815,-608,-13167
24.890259,2881,-641,-13081
24.905884,2922,-681,-13124
24.921509,2974,-684,-13192
24.937134,3071,-631,-13151
24.952759,3154,-624,-13154
24.968384,3179,-647,-13199
24.984009,3197,-641,-13122
24.999634,3231,-638,-13090
25.015259,3260,-654,-13160
25.030884,3356,-624,-13142
25.046509,3463,-599,-13151
25.062134,3501,-606,-13199
25.077759,3512,-568,-13183
25.093384,3512,-556,-13131
25.108887,3512,-493,-13047
25.124512,3553,-431,-13120
25.140137,3622,-447,-13211
25.155762,3660,-363,-13158
25.171387,3672,-342,-13222
25.187012,3671,-324,-13172
25.202637,3647,-202,-13010
25.218262,3674,-184,-13122
25.233887,3694,-133,-13170
25.249512,3704,-54,-13133
25.265137,3733,-84,-13245
25.280762,3665,-70,-13203
25.296387,3581,-8,-13086
25.312012,3533,67,-13120
25.327637,3503,146,-13140
25.343262,3512,158,-13117
25.358887,3481,155,-13135
25.374512,3471,169,-13213
25.390137,3447,205,-13226
25.405762,3342,271,-13129
25.421387,3297,294,-13145
25.437012,3274,258,-13176
25.452637,3181,219,-13072
25.468262,3144,217,-13135
25.483887,3137,249,-13231
25.499512,3079,241,-13128
25.515137,3062,233,-13167
25.530762,3012,205,-13226
25.546387,2899,119,-13095
25.562012,2838,107,-13076
25.577637,2808,94,-13117
25.593262,2797,80,-13142
25.608887,2817,76,-13201
25.624512,2824,-18,-13204
25.640137,2812,-100,-13195
25.655762,2763,-158,-13088
25.671387,2728,-220,-13038
25.687012,2724,-209,-13199
25.702637,2746,-215,-13190
25.718262,2765,-292,-13115
25.733887,2735,-359,-13206
25.749512,2769,-456,-13126
25.765137,2853,-522,-13042
25.780762,2860,-481,-13226
25.796387,2897,-477,-13233
25.812012,2981,-527,-13103
25.827637,2978,-597,-13170
25.843262,2971,-663,-13172
25.858887,3022,-666,-13097
25.874512,3076,-649,-13140
25.890137,3163,-663,-13172
25.905762,3233,-709,-13178
25.921387,3303,-722,-13160
25.937012,3338,-683,-13163
25.952637,3319,-643,-13176
25.968262,3408,-600,-13058
25.983887,3456,-602,-13103
25.999512,3463,-679,-13269
26.015137,3565,-666,-13163
26.030762,3592,-595,-13142
26.046387,3596,-542,-13178
26.062012,3671,-418,-13033
26.077637,3720,-424,-13110
26.093262,3735,-461,-13238
26.108887,3745,-395,-13197
26.124512,3751,-422,-13186
26.140137,3717,-311,-13115
26.155762,3715,-167,-13079
26.171387,3747,-156,-13113
26.187012,3753,-102,-13124
26.202637,3826,-150,-13219
26.218262,3810,-142,-13211
26.233887,3715,-17,-13156
26.249512,3731,44,-13215
26.265137,3644,130,-13117
26.280762,3565,160,-13044
26.296387,3581,103,-13140
26.312012,3515,128,-13149
26.327637,3517,196,-13172
26.343262,3524,242,-13235
26.358887,3447,274,-13192
26.374512,3410,246,-13147
26.390137,3313,207,-13120
26.405762,3204,219,-13088
26.421387,3183,257,-13097
26.437012,3156,276,-13142
26.452637,3146,251,-13226
26.468262,3135,207,-13249
26.483887,3051,144,-13144
26.499512,2967,107,-13106
26.515137,2921,110,-13086
26.530762,2896,71,-13033
26.546387,2910,41,-13197
26.562012,2913,24,-13303
26.577637,2885,-58,-13140
26.593262,2819,-117,-13122
26.608887,2780,-150,-13133
26.624512,2844,-252,-13045
26.640137,2878,-275,-13199
26.655762,2865,-281,-13281
26.671387,2885,-370,-13154
26.687012,2856,-395,-13144
26.702637,2860,-456,-13092
26.718262,2894,-508,-13095
26.733887,2910,-475,-13181
26.749512,3015,-533,-13144
26.765137,3081,-629,-13192
26.780762,3078,-659,-13185
26.796387,3144,-665,-13111
26.812012,3138,-643,-13192
26.827637,3206,-624,-13115
26.843262,3340,-672,-13076
26.858887,3315,-718,-13247
26.874512,3404,-695,-13147
26.890137,3479,-670,-13099
26.905762,3428,-672,-13208
26.921387,3546,-625,-13069
26.937012,3608,-649,-13129
26.952637,3596,-683,-13263
26.968262,3669,-584,-13119
26.983887,3674,-559,-13129
26.999512,3704,-493,-13153
27.015137,3776,-409,-13108
27.030762,3801,-458,-13188
27.046387,3822,-393,-13170
27.062012,3844,-372,-13161
27.077637,3835,-361,-13169
27.093262,3822,-209,-13074
27.108887,3860,-158,-13129
27.124512,3872,-133,-13186
27.140137,3842,-95,-13128
27.155762,3833,-100,-13170
27.171387,3804,-58,-13195
27.187012,3751,17,-13128
27.202637,3713,87,-13115
27.218262,3703,121,-13140
27.233887,3669,126,-13126
27.249512,3637,142,-13133
27.265137,3622,174,-13183
27.280762,3571,239,-13211
27.296387,3517,271,-13174
27.312012,3424,226,-13133
27.327637,3363,216,-13161
27.343262,3308,212,-13104
27.358887,3229,199,-13053
27.374512,3240,230,-13188
27.390137,3229,205,-13195
27.405762,3167,176,-13133
27.421387,3122,185,-13213
27.437012,3046,128,-13151
27.452637,2974,85,-13069
27.468262,2960,82,-13136
27.483887,2955,0,-13147
27.499512,2938,-63,-13176
27.515137,2922,-92,-13188
27.530762,2906,-140,-13115
27.546387,2894,-156,-13128
27.562012,2888,-227,-13122
27.577637,2908,-290,-13136
27.593262,2926,-317,-13217
27.608887,2942,-404,-13160
27.624512,2949,-454,-13136
27.640137,2955,-467,-13160
27.655762,2992,-508,-13108
27.671387,3019,-534,-13149
27.687012,3092,-547,-13156
27.702637,3160,-584,-13147
27.718262,3174,-629,-13195
27.733887,3249,-656,-13117
27.749512,3285,-665,-13154
27.765137,3292,-681,-13213
27.780762,3404,-690,-13063
27.796387,3433,-727,-13144
27.812012,3437,-740,-13226
27.827637,3569,-656,-13069
27.843262,3588,-665,-13154
27.858887,3599,-674,-13194
27.874512,3710,-597,-13070
27.890137,3701,-641,-13206
27.905762,3713,-600,-13186
27.921387,3781,-490,-13056
27.937012,3783,-493,-13153
27.952637,3826,-400,-13140
27.968262,3903,-379,-13147
27.983887,3915,-425,-13185
27.999512,3888,-338,-13115
28.015137,3922,-313,-13153
28.030762,3915,-220,-13128
28.046387,3885,-102,-13122
28.062012,3913,-125,-13188
28.077637,3860,-79,-13124
28.093262,3835,-65,-13165
28.108887,3854,-38,-13204
28.124512,3795,98,-13106
28.140137,3790,133,-13169
28.155762,3770,149,-13204
28.171387,3692,183,-13101
28.187012,3654,167,-13135
28.202637,3592,199,-13190
28.218262,3554,257,-13145
28.233887,3544,242,-13142
28.249512,3487,178,-13194
28.265137,3421,142,-13181
28.280762,3342,178,-13115
28.296387,3271,228,-13111
28.312012,3235,239,-13147
28.327637,3212,208,-13161
28.343262,3163,158,-13169
28.358887,3099,112,-13185
28.374512,3051,46,-13111
28.390137,3031,23,-13069
28.405762,3028,51,-13165
28.421387,3037,-15,-13151
28.437012,3049,-90,-13156
28.452637,3013,-117,-13226
28.468262,2962,-227,-13101
28.483887,2926,-281,-13095
28.499512,2935,-288,-13188
28.515137,3005,-374,-13128
28.530762,3006,-397,-13183
28.546387,3001,-443,-13186
28.562012,3062,-517,-13063
28.577637,3046,-492,-13156
28.593262,3067,-502,-13197
28.608887,3165,-552,-13083
28.624512,3201,-608,-13144
28.640137,3256,-666,-13201
28.655762,3310,-695,-13128
28.671387,3313,-693,-13138
28.687012,3388,-668,-13188
28.702637,3481,-688,-13154
28.718262,3512,-731,-13120
28.733887,3537,-743,-13188
28.749512,3583,-738,-13201
28.765137,3685,-654,-13069
28.780762,3726,-606,-13131
28.796387,3703,-652,-13244
28.812012,3760,-616,-13131
28.827637,3790,-602,-13149
28.843262,3799,-565,-13136
28.858887,3878,-434,-13040
28.874512,3954,-474,-13217
28.890137,3987,-450,-13236
28.905762,3981,-325,-13124
28.921387,3969,-354,-13199
28.937012,3935,-261,-13086
28.952637,3940,-143,-13028
28.968262,3983,-156,-13195
28.983887,3974,-109,-13165
28.999512,3987,-122,-13151
29.015137,3976,-129,-13233
29.030762,3885,-22,-13142
29.046387,3826,69,-13083
29.062012,3804,151,-13126
29.077637,3772,174,-13124
29.093262,3749,142,-13131
29.108887,3706,167,-13174
29.124512,3662,199,-13220
29.140137,3646,203,-13201
29.155762,3558,226,-13115
29.171387,3485,230,-13138
29.187012,3444,174,-13142
29.202637,3363,149,-13067
29.218262,3335,208,-13160
29.233887,3310,242,-13208
29.249512,3262,185,-13142
29.265137,3226,137,-13215
29.280762,3153,69,-13174
29.296387,3088,-15,-13036
29.312012,3079,-8,-13086
29.327637,3079,-22,-13165
29.343262,3087,-52,-13183
29.358887,3083,-77,-13160
29.374512,3046,-179,-13140
29.390137,2996,-259,-13153
29.405762,2980,-309,-13065
29.421387,3033,-356,-13120
29.437012,3069,-356,-13292
29.452637,3094,-409,-13170
29.468262,3121,-508,-13083
29.483887,3092,-542,-13169
29.499512,3137,-563,-13106
29.515137,3204,-563,-13124
29.530762,3199,-558,-13238
29.546387,3274,-636,-13158
29.562012,3337,-731,-13110
29.577637,3342,-758,-13176
29.593262,3369,-727,-13147
29.608887,3428,-688,-13117
29.624512,3549,-688,-13165
29.640137,3646,-684,-13199
29.655762,3681,-665,-13192
29.671387,3717,-665,-13156
29.687012,3738,-638,-13120
29.702637,3774,-622,-13090
29.718262,3833,-633,-13128
29.733887,3870,-634,-13217
29.749512,3915,-602,-13169
29.765137,3956,-542,-13115
29.780762,3958,-513,-13144
29.796387,3967,-429,-13094
29.812012,3994,-363,-13133
29.827637,4008,-338,-13208
29.843262,3994,-220,-13144
29.858887,3997,-181,-13176
29.874512,3997,-192,-13151
29.890137,3999,-102,-13061
29.905762,4051,-81,-13176
29.921387,4029,-49,-13172
29.937012,3992,32,-13124
29.952637,4010,8,-13258
29.968262,3913,30,-13174
29.983887,3799,107,-13053
29.999512,3788,112,-13169
30.015137,3726,135,-13144
30.030762,3663,203,-13092
30.046387,3658,214,-13210
30.062012,3592,199,-13203
30.077637,3546,249,-13126
30.093262,3517,251,-13136
30.108887,3462,217,-13161
30.124512,3419,219,-13131
30.140137,3360,180,-13110
30.155762,3329,157,-13206
30.171387,3297,133,-13183
30.187012,3231,57,-13058
30.202637,3183,58,-13174
30.218262,3128,41,-13208
30.233887,3088,-74,-13054
30.249512,3081,-108,-13179
30.265137,3063,-140,-13260
30.280762,3056,-199,-13085
30.296387,3053,-181,-13144
30.312012,3062,-218,-13201
30.327637,3117,-318,-13083
30.343262,3131,-363,-13147
30.358887,3131,-424,-13194
30.374512,3158,-515,-13165
30.390137,3165,-547,-13174
30.405762,3196,-577,-13117
30.421387,3213,-625,-13147
30.437012,3258,-659,-13158
30.452637,3344,-656,-13111
30.468262,3344,-654,-13197
30.483887,3399,-670,-13190
30.499512,3501,-683,-13135
30.515137,3508,-695,-13195
30.530762,3571,-666,-13140
30.546387,3624,-691,-13113
30.562012,3651,-718,-13149
30.577637,3778,-666,-13110
30.593262,3837,-674,-13181
30.608887,3869,-654,-13186
30.624512,3928,-631,-13128
30.640137,3878,-659,-13169
30.655762,3874,-567,-13088
30.671387,3940,-490,-13076
30.687012,3978,-481,-13170
30.702637,4037,-400,-13179
30.718262,4083,-399,-13211
30.733887,4081,-365,-13154
30.749512,4070,-267,-13086
30.765137,4081,-227,-13135
30.780762,4065,-111,-13120
30.796387,4069,-75,-13140
30.812012,4088,-127,-13204
30.827637,4037,-88,-13183
30.843262,3999,-42,-13163
30.858887,3945,26,-13126
30.874512,3897,87,-13106
30.890137,3897,114,-13136
30.905762,3840,164,-13140
30.921387,3804,182,-13188
30.937012,3760,207,-13211
30.952637,3665,249,-13144
30.968262,3638,248,-13156
30.983887,3594,226,-13163
30.999512,3513,158,-13094
31.015137,3496,128,-13144
31.030762,3469,191,-13176
31.046387,3399,207,-13106
31.062012,3358,187,-13176
31.077637,3313,142,-13224
31.093262,3226,46,-13120
31.108887,3163,3,-13094
31.124512,3149,-34,-13103
31.140137,3142,-68,-13108
31.155762,3137,-52,-13174
31.171387,3154,-120,-13170
31.187012,3165,-206,-13144
31.202637,3135,-256,-13126
31.218262,3106,-322,-13072
31.233887,3103,-327,-13138
31.249512,3129,-354,-13204
31.265137,3171,-463,-13154
31.280762,3181,-522,-13144
31.296387,3199,-570,-13122
31.312012,3231,-616,-13117
31.327637,3288,-604,-13163
31.343262,3363,-599,-13165
31.358887,3404,-627,-13174
31.374512,3460,-690,-13172
31.390137,3476,-749,-13158
31.405762,3456,-741,-13149
31.421387,3540,-695,-13081
31.437012,3651,-683,-13126
31.452637,3713,-718,-13238
31.468262,3801,-718,-13163
31.483887,3838,-686,-13129
31.499512,3829,-661,-13167
31.515137,3878,-606,-13067
31.530762,3912,-592,-13108
31.546387,3947,-604,-13208
31.562012,4010,-522,-13128
31.577637,4035,-495,-13165
31.593262,4069,-483,-13201
31.608887,4106,-397,-13076
31.624512,4115,-379,-13108
31.640137,4115,-315,-13154
31.655762,4115,-224,-13140
31.671387,4131,-208,-13140
31.687012,4088,-120,-13097
31.702637,4070,-102,-13188
31.718262,4063,-122,-13122
31.733887,3978,-2,-13033
31.749512,4063,14,-13249
31.765137,4024,44,-13167
31.780762,3904,135,-13074
31.796387,3985,112,-13272
31.812012,3831,153,-13108
31.827637,3720,208,-13029
31.843262,3808,173,-13224
31.858887,3685,153,-13110
31.874512,3628,198,-13106
31.890137,3633,196,-13229
31.905762,3529,191,-13151
31.921387,3506,233,-13124
31.937012,3444,189,-13138
31.952637,3369,149,-13163
31.968262,3346,133,-13145
31.983887,3292,82,-13126
31.999512,3258,44,-13203
32.015137,3238,-18,-13131
32.030762,3203,-56,-13090
32.046387,3176,-72,-13206
32.062012,3176,-149,-13158
32.077637,3160,-220,-13085
32.093262,3129,-200,-13172
32.108887,3144,-234,-13158
32.124512,3172,-361,-13101
32.140137,3165,-388,-13183
32.155762,3183,-425,-13153
32.171387,3247,-538,-13117
32.187012,3226,-538,-13213
32.202637,3262,-554,-13108
32.218262,3326,-618,-13088
32.233887,3281,-615,-13210
32.249512,3422,-654,-13074
32.265137,3503,-699,-13140
32.280762,3446,-679,-13263
32.296387,3603,-681,-13081
32.312012,3617,-720,-13156
32.327637,3597,-731,-13208
32.343262,3747,-708,-13061
32.358887,3749,-697,-13142
32.374512,3813,-665,-13144
32.390137,3922,-656,-13124
32.405762,3906,-658,-13194
32.421387,3956,-572,-13135
32.437012,3987,-581,-13147
32.452637,4006,-577,-13120
32.468262,4070,-490,-13104
32.483887,4095,-508,-13219
32.499512,4122,-409,-13142
32.515137,4151,-358,-13160
32.530762,4138,-361,-13185
32.546387,4115,-195,-13029
32.562012,4149,-181,-13145
32.577637,4138,-179,-13203
32.593262,4113,-97,-13115
32.608887,4142,-108,-13211
32.624512,4088,-40,-13183
32.640137,4069,-11,-13110
32.655762,4056,-8,-13149
32.671387,3962,71,-13126
32.687012,3949,103,-13128
32.702637,3933,133,-13181
32.718262,3865,171,-13201
32.733887,3810,201,-13170
32.749512,3728,205,-13136
32.765137,3667,185,-13136
32.780762,3613,208,-13129
32.796387,3578,224,-13128
32.812012,3553,191,-13161
32.827637,3494,169,-13194
32.843262,3438,141,-13174
32.858887,3363,80,-13104
32.874512,3296,53,-13117
32.890137,3262,10,-13133
32.905762,3246,-50,-13124
32.921387,3226,-70,-13172
32.937012,3197,-100,-13172
32.952637,3183,-125,-13167
32.968262,3156,-158,-13104
32.983887,3156,-247,-13095
32.999512,3181,-279,-13215
33.015137,3208,-349,-13138
33.030762,3224,-431,-13124
33.046387,3212,-422,-13231
33.062012,3244,-484,-13083
33.077637,3265,-556,-13090
33.093262,3263,-554,-13240
33.108887,3358,-583,-13131
33.124512,3424,-658,-13126
33.140137,3419,-713,-13215
33.155762,3476,-702,-13140
33.171387,3529,-686,-13119
33.187012,3547,-693,-13147
33.202637,3592,-720,-13147
33.218262,3681,-740,-13140
33.233887,3767,-713,-13165
33.249512,3815,-691,-13217
33.265137,3879,-663,-13120
33.280762,3928,-627,-13088
33.296387,3944,-672,-13179
33.312012,3988,-654,-13115
33.327637,4020,-609,-13153
33.343262,4053,-581,-13211
33.358887,4119,-456,-13072
33.374512,4142,-450,-13135
33.390137,4142,-475,-13201
33.405762,4167,-386,-13101
33.421387,4169,-367,-13161
33.437012,4140,-297,-13151
33.452637,4151,-179,-13078
33.468262,4156,-147,-13163
33.483887,4113,-100,-13170
33.499512,4140,-83,-13129
33.515137,4154,-83,-13144
33.530762,4070,1,-13158
33.546387,4051,71,-13194
33.562012,4029,105,-13158
33.577637,3960,132,-13133
33.593262,3922,144,-13181
33.608887,3847,164,-13126
33.624512,3794,183,-13101
33.640137,3803,212,-13194
33.655762,3728,223,-13167
33.671387,3642,182,-13129
33.687012,3635,174,-13192
33.702637,3549,182,-13117
33.718262,3447,166,-13069
33.733887,3438,169,-13178
33.749512,3419,94,-13172
33.765137,3383,30,-13179
33.780762,3335,32,-13201
33.796387,3263,-15,-13095
33.812012,3210,-33,-13106
33.827637,3213,-59,-13142
33.843262,3237,-136,-13135
33.858887,3212,-183,-13211
33.874512,3215,-256,-13163
33.890137,3224,-322,-13072
33.905762,3187,-331,-13153
33.921387,3197,-386,-13172
33.937012,3237,-445,-13120
33.952637,3288,-481,-13153
33.968262,3331,-558,-13181
33.983887,3333,-597,-13147
33.999512,3388,-600,-13120
34.015137,3426,-638,-13195
34.030762,3444,-683,-13163
34.046387,3558,-729,-13061
34.062012,3562,-745,-13201
34.077637,3579,-722,-13195
34.093262,3738,-683,-13045
34.109009,3731,-691,-13199
34.124634,3751,-720,-13226
34.140259,3895,-691,-13085
34.155884,3894,-693,-13178
34.171509,3922,-690,-13179
34.187134,4031,-638,-13097
34.202759,4031,-622,-13174
34.218384,4054,-559,-13138
34.234009,4119,-488,-13094
34.249634,4163,-492,-13154
34.265259,4203,-449,-13142
34.280884,4190,-431,-13158
34.296509,4187,-372,-13135
34.312134,4213,-250,-13103
34.327759,4226,-238,-13153
34.343384,4213,-159,-13097
34.359009,4245,-106,-13129
34.374634,4278,-152,-13215
34.390259,4201,-84,-13126
34.405884,4183,-18,-13169
34.421509,4156,39,-13217
34.437134,4078,107,-13094
34.452759,4088,110,-13115
34.468384,4044,132,-13161
34.484009,3976,169,-13149
34.499634,3981,210,-13195
34.515259,3935,233,-13197
34.530884,3862,223,-13179
34.546509,3785,192,-13149
34.562134,3695,160,-13110
34.577759,3671,194,-13131
34.593384,3640,201,-13113
34.609009,3590,169,-13145
34.624634,3588,169,-13240
34.640259,3551,110,-13144
34.655884,3478,55,-13086
34.671509,3429,44,-13179
34.687134,3401,-13,-13103
34.702759,3399,-67,-13095
34.718384,3408,-93,-13249
34.734009,3417,-163,-13169
34.749634,3417,-249,-13101
34.765259,3383,-290,-13165
34.780884,3394,-324,-13104
34.796509,3429,-379,-13140
34.812134,3435,-429,-13210
34.827759,3501,-479,-13144
34.843384,3542,-531,-13147
34.859009,3549,-581,-13129
34.874634,3617,-636,-13103
34.890259,3656,-645,-13194
34.905884,3744,-631,-13151
34.921509,3831,-670,-13104
34.937134,3826,-697,-13169
34.952759,3899,-690,-13129
34.968384,3954,-711,-13129
34.984009,3990,-697,-13138
34.999634,4135,-684,-13129
35.015259,4219,-727,-13203
35.030884,4254,-695,-13133
35.046509,4303,-684,-13122
35.062134,4311,-672,-13169
35.077759,4372,-529,-13051
35.093384,4433,-518,-13140
35.108887,4474,-506,-13197
35.124512,4545,-420,-13099
35.140137,4570,-472,-13188
35.155762,4569,-392,-13129
35.171387,4595,-277,-13069
35.187012,4645,-250,-13194
35.202637,4665,-158,-13153
35.218262,4679,-143,-13144
35.233887,4665,-115,-13186
35.249512,4613,-47,-13108
35.265137,4611,-42,-13129
35.280762,4586,41,-13176
35.296387,4547,117,-13136
35.312012,4551,89,-13163
35.327637,4495,105,-13183
35.343262,4413,180,-13142
35.358887,4381,203,-13126
35.374512,4340,212,-13133
35.390137,4303,230,-13156
35.405762,4265,196,-13154
35.421387,4197,149,-13147
35.437012,4144,164,-13181
35.452637,4101,180,-13126
35.468262,4072,139,-13103
35.483887,4047,76,-13215
35.499512,3995,-9,-13185
35.515137,3951,-65,-13113
35.530762,3922,-49,-13154
35.546387,3913,-97,-13099
35.562012,3920,-165,-13117
35.577637,3922,-202,-13201
35.593262,3956,-304,-13113
35.608887,3942,-347,-13126
35.624512,3928,-374,-13165
35.640137,4004,-456,-13104
35.655762,4004,-454,-13195
35.671387,4053,-517,-13149
35.687012,4156,-638,-13067
35.702637,4140,-645,-13224
35.718262,4228,-668,-13149
35.733887,4340,-708,-13069
35.749512,4345,-722,-13228
35.765137,4438,-749,-13165
35.780762,4520,-770,-13069
35.796387,4533,-783,-13156
35.812012,4608,-768,-13154
35.827637,4681,-754,-13106
35.843262,4738,-738,-13128
35.858887,4829,-713,-13170
35.874512,4910,-706,-13167
35.890137,4970,-641,-13129
35.905762,4994,-590,-13158
35.921387,5008,-543,-13108
35.937012,5092,-459,-13033
35.952637,5147,-477,-13156
35.968262,5147,-452,-13192
35.983887,5163,-368,-13131
35.999512,5181,-358,-13185
36.015137,5172,-261,-13145
36.030762,5154,-156,-13085
36.046387,5156,-125,-13117
36.062012,5136,-63,-13113
36.077637,5140,-52,-13154
36.093262,5136,-42,-13197
36.109009,5054,49,-13158
36.124634,5019,92,-13154
36.140259,4992,96,-13142
36.155884,4920,114,-13108
36.171509,4886,141,-13172
36.187134,4829,142,-13183
36.202759,4756,132,-13133
36.218384,4726,146,-13170
36.234009,4667,112,-13151
36.249634,4617,60,-13122
36.265259,4578,32,-13153
36.280884,4506,-17,-13120
36.296509,4472,-33,-13133
36.312134,4458,-50,-13149
36.327759,4426,-113,-13145
36.343384,4422,-159,-13153
36.359009,4435,-265,-13101
36.374634,4426,-372,-13147
36.390259,4444,-406,-13161
36.405884,4494,-456,-13097
36.421509,4486,-490,-13203
36.437134,4513,-534,-13170
36.452759,4579,-613,-13047
36.468384,4570,-652,-13161
36.484009,4636,-695,-13163
36.499634,4751,-734,-13101
36.515259,4790,-740,-13208
36.530884,4888,-761,-13156
36.546509,4961,-808,-13083
36.562134,4940,-836,-13167
36.577759,5027,-809,-13099
36.593384,5151,-774,-13085
36.609009,5229,-756,-13197
36.624634,5351,-722,-13174
36.640259,5392,-740,-13185
36.655884,5374,-729,-13154
36.671509,5420,-650,-13047
36.687134,5492,-602,-13085
36.702759,5574,-550,-13131
36.718384,5640,-520,-13188
36.734009,5647,-495,-13236
36.749634,5620,-413,-13129
36.765259,5586,-336,-13040
36.780884,5576,-259,-13056
36.796509,5606,-188,-13119
36.812134,5654,-165,-13192
36.827759,5674,-159,-13203
36.843384,5633,-125,-13197
36.859009,5561,-34,-13165
36.874634,5476,32,-13074
36.890259,5436,48,-13108
36.905884,5422,82,-13163
36.921509,5338,66,-13103
36.937134,5310,64,-13183
36.952759,5288,116,-13244
36.968384,5170,96,-13104
36.984009,5122,74,-13104
36.999634,5094,41,-13158
37.015259,5019,-47,-13124
37.030884,4970,-52,-13169
37.046509,4915,-63,-13142
37.062134,4878,-83,-13128
37.077759,4879,-108,-13178
37.093384,4878,-233,-13104
37.108887,4870,-333,-13129
37.124512,4892,-429,-13176
37.140137,4908,-500,-13110
37.155762,4879,-468,-13172
37.171387,4915,-488,-13192
37.187012,4970,-597,-13113
37.202637,4970,-681,-13122
37.218262,5052,-752,-13099
37.233887,5131,-791,-13138
37.249512,5170,-774,-13194
37.265137,5310,-813,-13129
37.280762,5356,-888,-13176
37.296387,5352,-881,-13167
37.312012,5460,-836,-13079
37.327637,5524,-831,-13170
37.343262,5608,-795,-13124
37.358887,5733,-758,-13079
37.374512,5763,-820,-13245
37.390137,5806,-775,-13153
37.405762,5868,-700,-13070
37.421387,5895,-691,-13158
37.437012,5963,-540,-13072
37.452637,6031,-504,-13161
37.468262,6027,-522,-13242
37.483887,6010,-413,-13099
37.499512,6036,-400,-13124
37.515137,6045,-320,-13124
37.530762,6040,-217,-13097
37.546387,6070,-217,-13199
37.562012,6031,-145,-13194
37.577637,5976,-90,-13160
37.593262,5918,-88,-13122
37.608887,5827,10,-13090
37.624512,5835,85,-13144
37.640137,5802,41,-13122
37.655762,5729,32,-13149
37.671387,5693,44,-13224
37.687012,5579,16,-13138
37.702637,5506,35,-13103
37.718262,5458,55,-13124
37.733887,5394,10,-13097
37.749512,5374,-83,-13160
37.765137,5335,-131,-13206
37.780762,5279,-158,-13122
37.796387,5242,-209,-13090
37.812012,5213,-245,-13126
37.827637,5242,-324,-13108
37.843262,5261,-397,-13163
37.858887,5256,-475,-13185
37.874512,5317,-595,-13117
37.890137,5320,-618,-13160
37.905762,5327,-645,-13131
37.921387,5395,-697,-13106
37.937012,5427,-722,-13170
37.952637,5524,-820,-13117
37.968262,5586,-881,-13151
37.983887,5602,-866,-13183
37.999512,5718,-859,-13088
38.015137,5763,-891,-13145
38.030762,5804,-909,-13144
38.046387,5952,-870,-13067
38.062012,6013,-858,-13194
38.077637,6090,-820,-13160
38.093262,6190,-749,-13038
38.108887,6195,-759,-13154
38.124512,6236,-752,-13153
38.140137,6309,-711,-13110
38.155762,6336,-645,-13163
38.171387,6356,-511,-13135
38.187012,6397,-463,-13131
38.202637,6388,-409,-13103
38.218262,6383,-358,-13108
38.233887,6409,-356,-13156
38.249512,6358,-242,-13104
38.265137,6365,-156,-13190
38.280762,6359,-100,-13220
38.296387,6258,-27,-13079
38.312012,6256,-38,-13135
38.327637,6179,-50,-13142
38.343262,6067,-6,-13079
38.358887,6079,48,-13188
38.374512,6015,26,-13192
38.390137,5958,-22,-13185
38.405762,5902,-20,-13203
38.421387,5761,-52,-13092
38.437012,5704,-77,-13113
38.452637,5677,-93,-13153
38.468262,5645,-142,-13111
38.483887,5652,-181,-13188
38.499512,5624,-259,-13192
38.515137,5576,-358,-13079
38.530762,5536,-413,-13103
38.546387,5545,-459,-13136
38.562012,5617,-536,-13094
38.577637,5636,-593,-13183
38.593262,5651,-640,-13183
38.608887,5706,-736,-13060
38.624512,5717,-804,-13129
38.640137,5763,-825,-13169
38.655762,5863,-852,-13106
38.671387,5940,-870,-13145
38.687012,6036,-893,-13183
38.702637,6102,-925,-13181
38.718262,6131,-916,-13144
38.733887,6224,-890,-13094
38.749512,6326,-902,-13126
38.765137,6420,-875,-13103
38.780762,6490,-849,-13133
38.796387,6499,-859,-13219
38.812012,6540,-756,-13085
38.827637,6601,-668,-13036
38.843262,6645,-625,-13135
38.858887,6676,-538,-13131
38.874512,6718,-554,-13165
38.890137,6724,-517,-13142
38.905762,6699,-395,-13120
38.921387,6711,-329,-13169
38.937012,6651,-217,-13103
38.952637,6642,-179,-13120
38.968262,6649,-186,-13144
38.983887,6536,-118,-13088
38.999512,6547,-86,-13197
39.015137,6501,-40,-13219
39.030762,6390,24,-13138
39.046387,6386,1,-13181
39.062012,6259,-49,-13128
39.077637,6154,-42,-13086
39.093262,6131,-31,-13136
39.108887,6061,-43,-13103
39.124512,6045,-75,-13161
39.140137,6029,-140,-13228
39.155762,5958,-192,-13154
39.171387,5901,-252,-13092
39.187012,5865,-342,-13074
39.202637,5863,-404,-13104
39.218262,5893,-438,-13174
39.233887,5906,-511,-13179
39.249512,5913,-636,-13153
39.265137,5918,-704,-13163
39.280762,5942,-736,-13076
39.296387,5995,-766,-13088
39.312012,6040,-775,-13233
39.327637,6177,-854,-13111
39.343262,6283,-931,-13097
39.358887,6247,-952,-13258
39.374512,6361,-956,-13095
39.390137,6463,-936,-13083
39.405762,6472,-902,-13211
39.421387,6645,-859,-13065
39.437012,6731,-916,-13140
39.452637,6704,-934,-13224
39.468262,6768,-824,-13076
39.483887,6809,-765,-13076
39.499512,6865,-670,-13076
39.515137,6981,-625,-13124
39.530762,7004,-615,-13203
39.546387,6970,-531,-13144
39.562012,6993,-545,-13151
39.577637,6967,-454,-13115
39.593262,6947,-302,-13090
39.608887,6983,-263,-13154
39.624512,6947,-197,-13128
39.640137,6958,-211,-13167
39.655762,6879,-204,-13178
39.671387,6731,-95,-13115
39.687012,6743,-45,-13178
39.702637,6661,-13,-13156
39.718262,6565,-17,-13122
39.733887,6533,-86,-13163
39.749512,6417,-124,-13128
39.765137,6377,-70,-13149
39.780762,6343,-45,-13142
39.796387,6261,-93,-13131
39.812012,6227,-170,-13199
39.827637,6174,-297,-13120
39.843262,6118,-368,-13058
39.858887,6095,-388,-13120
39.874512,6108,-442,-13140
39.890137,6159,-499,-13167
39.905762,6186,-556,-13188
39.921387,6197,-665,-13115
39.937012,6224,-797,-13101
39.952637,6240,-825,-13181
39.968262,6318,-809,-13138
39.983887,6393,-859,-13140
39.999512,6434,-952,-13188
40.015137,6558,-1015,-13095
40.030762,6586,-1002,-13178
40.046387,6629,-924,-13181
40.062012,6800,-865,-13028
40.077637,6822,-925,-13186
40.093262,6879,-934,-13163
40.108887,6995,-900,-13053
40.124512,6970,-952,-13222
40.140137,7027,-822,-13104
40.155762,7163,-690,-13029
40.171387,7215,-702,-13186
40.187012,7220,-608,-13147
40.202637,7254,-606,-13156
40.218262,7233,-565,-13145
40.233887,7193,-404,-13095
40.249512,7234,-375,-13151
40.265137,7184,-295,-13101
40.280762,7156,-225,-13122
40.296387,7174,-242,-13172
40.312012,7068,-174,-13113
40.327637,7017,-99,-13195
40.343262,6963,-49,-13195
40.358887,6865,-22,-13085
40.374512,6836,-74,-13160
40.390137,6734,-138,-13161
40.405762,6613,-122,-13065
40.421387,6574,-67,-13124
40.437012,6547,-50,-13165
40.452637,6526,-133,-13153
40.468262,6483,-243,-13206
40.483887,6406,-345,-13129
40.499512,6352,-447,-13038
40.515137,6329,-447,-13115
40.530762,6347,-481,-13124
40.546387,6377,-558,-13165
40.562012,6388,-572,-13219
40.577637,6447,-718,-13061
40.593262,6456,-845,-13054
40.608887,6451,-825,-13170
40.624512,6577,-847,-13135
40.640137,6670,-888,-13158
40.655762,6729,-956,-13186
40.671387,6831,-1033,-13149
40.687012,6868,-1022,-13131
40.702637,6899,-965,-13103
40.718262,6967,-936,-13101
40.733887,7072,-925,-13072
40.749512,7186,-936,-13135
40.765137,7225,-991,-13294
40.780762,7268,-902,-13142
40.796387,7311,-754,-12988
40.812012,7342,-740,-13103
40.827637,7408,-661,-13136
40.843262,7474,-608,-13197
40.858887,7474,-586,-13206
40.874512,7418,-456,-13095
40.890137,7409,-402,-13115
40.905762,7379,-334,-13092
40.921387,7363,-222,-13079
40.937012,7391,-222,-13154
40.952637,7324,-218,-13167
40.968262,7283,-156,-13217
40.983887,7190,-100,-13194
40.999512,7074,-83,-13111
41.015137,7061,-88,-13156
41.030762,6942,-115,-13099
41.046387,6834,-133,-13085
41.062012,6827,-104,-13208
41.077637,6756,-109,-13131
41.093262,6692,-149,-13104
41.108887,6670,-209,-13215
41.124512,6626,-336,-13103
41.140137,6583,-450,-13054
41.155762,6543,-472,-13185
41.171387,6549,-522,-13117
41.187012,6586,-602,-13094
41.202637,6568,-624,-13224
41.218262,6602,-711,-13124
41.233887,6667,-834,-13051
41.249512,6692,-886,-13181
41.265137,6783,-924,-13170
41.280762,6850,-943,-13106
41.296387,6890,-933,-13122
41.312012,6975,-995,-13135
41.327637,7027,-1059,-13128
41.343262,7125,-1018,-13101
41.358887,7227,-977,-13151
41.374512,7300,-945,-13153
41.390137,7399,-911,-13101
41.405762,7424,-938,-13170
41.421387,7458,-899,-13122
41.437012,7525,-811,-13038
41.452637,7563,-774,-13144
41.468262,7624,-672,-13167
41.483887,7649,-577,-13147
41.499512,7634,-552,-13161
41.515137,7625,-495,-13095
41.530762,7602,-456,-13108
41.546387,7590,-375,-13149
41.562012,7595,-252,-13138
41.577637,7563,-211,-13181
41.593262,7484,-206,-13163
41.608887,7406,-192,-13124
41.624512,7336,-138,-13156
41.640137,7256,-79,-13136
41.655762,7206,-88,-13131
41.671387,7140,-109,-13172
41.687012,7029,-138,-13161
41.702637,6975,-163,-13160
41.718262,6917,-209,-13140
41.733887,6834,-265,-13081
41.749512,6804,-275,-13131
41.765137,6786,-340,-13161
41.780762,6761,-433,-13115
41.796387,6722,-474,-13156
41.812012,6738,-568,-13119
41.827637,6761,-677,-13090
41.843262,6751,-715,-13156
41.858887,6829,-770,-13119
41.874512,6888,-841,-13151
41.890137,6918,-904,-13170
41.905762,7013,-972,-13083
41.921387,7045,-1011,-13149
41.937012,7088,-1020,-13163
41.952637,7202,-1015,-13088
41.968262,7256,-1020,-13167
41.983887,7331,-1025,-13183
41.999512,7459,-1025,-13120
42.015137,7527,-1002,-13126
42.030762,7565,-913,-13094
42.046387,7627,-879,-13090
42.062012,7691,-875,-13119
42.077637,7765,-797,-13138
42.093262,7815,-749,-13172
42.108887,7791,-647,-13097
42.124512,7777,-547,-13099
42.140137,7808,-502,-13161
42.155762,7793,-418,-13092
42.171387,7797,-397,-13128
42.187012,7763,-343,-13181
42.202637,7683,-252,-13149
42.218262,7663,-215,-13170
42.233887,7581,-142,-13126
42.249512,7513,-111,-13106
42.265137,7486,-136,-13161
42.280762,7374,-117,-13133
42.296387,7292,-93,-13133
42.312012,7258,-109,-13172
42.327637,7175,-163,-13131
42.343262,7099,-208,-13124
42.358887,7049,-245,-13140
42.374512,6990,-338,-13095
42.390137,6954,-395,-13128
42.405762,6940,-420,-13158
42.421387,6929,-520,-13115
42.437012,6920,-597,-13149
42.452637,6927,-658,-13136
42.468262,6965,-761,-13074
42.483887,6999,-809,-13144
42.499512,7054,-841,-13156
42.515137,7125,-940,-13106
42.530762,7168,-1006,-13156
42.546387,7252,-997,-13138
42.562012,7336,-1018,-13113
42.577637,7384,-1047,-13156
42.593262,7504,-1015,-13133
42.608887,7586,-1004,-13145
42.624512,7656,-995,-13142
42.640137,7781,-974,-13110
42.655762,7809,-981,-13167
42.671387,7820,-927,-13119
42.687012,7890,-836,-13076
42.702637,7947,-791,-13128
42.718262,7984,-700,-13106
42.733887,8024,-643,-13147
42.749512,8031,-616,-13133
42.765137,8015,-511,-13078
42.780762,8036,-450,-13186
42.796387,7983,-397,-13183
42.812012,7943,-311,-13126
42.827637,7934,-256,-13163
42.843262,7804,-208,-13113
42.858887,7768,-168,-13120
42.874512,7745,-152,-13178
42.890137,7633,-147,-13140
42.905762,7590,-117,-13172
42.921387,7504,-134,-13170
42.937012,7397,-195,-13099
42.952637,7336,-206,-13126
42.968262,7279,-231,-13119
42.983887,7238,-299,-13081
42.999512,7206,-349,-13144
43.015137,7190,-406,-13163
43.030762,7158,-499,-13113
43.046387,7150,-597,-13111
43.062012,7186,-666,-13128
43.077637,7199,-734,-13117
43.093262,7218,-795,-13120
43.109009,7286,-845,-13169
43.124634,7354,-940,-13183
43.140259,7402,-1009,-13122
43.155884,7441,-1025,-13110
43.171509,7479,-1059,-13161
43.187134,7602,-1054,-13122
43.202759,7725,-1025,-13117
43.218384,7781,-1041,-13204
43.234009,7895,-1009,-13135
43.249634,7993,-991,-13090
43.265259,8025,-1025,-13153
43.280884,8072,-959,-13092
43.296509,8120,-872,-13095
43.312134,8181,-770,-13151
43.327759,8250,-652,-13126
43.343384,8302,-645,-13147
43.359009,8302,-606,-13108
43.374634,8282,-554,-13088
43.390259,8307,-545,-13169
43.405884,8259,-413,-13145
43.421509,8209,-279,-13158
43.437134,8200,-238,-13179
43.452759,8095,-222,-13103
43.468384,8029,-204,-13135
43.484009,8000,-158,-13156
43.499634,7933,-124,-13147
43.515259,7899,-140,-13192
43.530884,7804,-192,-13158
43.546509,7699,-204,-13144
43.562134,7627,-236,-13095
43.577759,7531,-288,-13040
43.593384,7511,-293,-13144
43.609009,7516,-383,-13153
43.624634,7479,-474,-13149
43.640259,7470,-533,-13172
43.655884,7472,-643,-13065
43.671509,7449,-716,-13092
43.687134,7470,-747,-13176
43.702759,7566,-797,-13122
43.718384,7638,-895,-13163
43.734009,7666,-981,-13190
43.749634,7777,-1013,-13083
43.765259,7850,-1049,-13142
43.780884,7879,-1050,-13188
43.796509,8036,-1025,-13090
43.812134,8149,-1075,-13179
43.827759,8197,-1104,-13213
43.843384,8272,-1056,-13095
43.859009,8309,-1038,-13108
43.874634,8366,-990,-13081
43.890259,8470,-900,-13061
43.905884,8561,-824,-13149
43.921509,8625,-734,-13153
43.937134,8665,-711,-13156
43.952759,8657,-702,-13133
43.968384,8620,-609,-13063
43.984009,8643,-495,-13124
43.999634,8657,-409,-13167
44.015259,8631,-358,-13160
44.030884,8606,-331,-13178
44.046509,8507,-297,-13133
44.062134,8431,-231,-13128
44.077759,8390,-145,-13133
44.093384,8325,-118,-13111
44.108887,8282,-161,-13194
44.124512,8182,-229,-13203
44.140137,8084,-270,-13097
44.155762,8038,-258,-13086
44.171387,7966,-270,-13103
44.187012,7933,-320,-13115
44.202637,7934,-384,-13179
44.218262,7922,-488,-13154
44.233887,7893,-588,-13076
44.249512,7874,-677,-13090
44.265137,7911,-745,-13119
44.280762,7947,-784,-13135
44.296387,7988,-861,-13156
44.312012,8106,-958,-13133
44.327637,8175,-1018,-13115
44.343262,8199,-1065,-13129
44.358887,8286,-1072,-13163
44.374512,8420,-1054,-13142
44.390137,8552,-1091,-13115
44.405762,8593,-1136,-13197
44.421387,8665,-1091,-13151
44.437012,8781,-1036,-13049
44.452637,8834,-1006,-13147
44.468262,8941,-922,-13115
44.483887,9038,-865,-13038
44.499512,9090,-870,-13192
44.515137,9134,-815,-13199
44.530762,9138,-725,-13079
44.546387,9122,-645,-13113
44.562012,9097,-502,-13133
44.577637,9115,-422,-13108
44.593262,9113,-438,-13133
44.608887,9065,-392,-13144
44.624512,9036,-308,-13145
44.640137,8990,-245,-13149
44.655762,8913,-168,-13158
44.671387,8850,-154,-13165
44.687012,8763,-231,-13131
44.702637,8661,-272,-13140
44.718262,8588,-272,-13117
44.733887,8527,-267,-13038
44.749512,8516,-261,-13140
44.765137,8488,-354,-13190
44.780762,8432,-500,-13119
44.796387,8404,-592,-13144
44.812012,8388,-683,-13063
44.827637,8384,-749,-13045
44.843262,8409,-770,-13188
44.858887,8488,-833,-13172
44.874512,8566,-968,-13124
44.890137,8611,-1072,-13147
44.905762,8697,-1084,-13117
44.921387,8779,-1079,-13142
44.937012,8847,-1075,-13149
44.952637,8984,-1104,-13053
44.968262,9079,-1174,-13110
44.983887,9150,-1183,-13195
44.999512,9298,-1116,-13113
45.015137,9352,-1059,-13081
45.030762,9363,-991,-13086
45.046387,9481,-920,-13060
45.062012,9573,-918,-13113
45.077637,9600,-886,-13167
45.093262,9641,-783,-13153
45.109009,9641,-661,-13106
45.124634,9627,-558,-13099
45.140259,9657,-509,-13111
45.155884,9607,-467,-13086
45.171509,9575,-440,-13165
45.187134,9591,-375,-13215
45.202759,9477,-261,-13129
45.218384,9420,-213,-13181
45.234009,9370,-236,-13174
45.249634,9220,-284,-13060
45.265259,9170,-308,-13167
45.280884,9095,-356,-13165
45.296509,8997,-363,-13063
45.312134,8982,-302,-13161
45.327759,8938,-393,-13149
45.343384,8891,-536,-13074
45.359009,8886,-606,-13124
45.374634,8890,-722,-13095
45.390259,8900,-820,-13076
45.405884,8920,-865,-13185
45.421509,8968,-929,-13201
45.437134,9040,-1020,-13103
45.452759,9106,-1116,-13115
45.468384,9182,-1168,-13174
45.484009,9282,-1149,-13147
45.499634,9418,-1152,-13111
45.515259,9557,-1188,-13106
45.530884,9620,-1184,-13161
45.546509,9672,-1170,-13153
45.562134,9782,-1118,-13054
45.577759,9841,-1081,-13095
45.593384,9893,-1040,-13097
45.609009,9977,-974,-13058
45.624634,10034,-963,-13190
45.640259,10073,-843,-13154
45.655884,10080,-711,-13060
45.671509,10052,-675,-13101
45.687134,10036,-559,-13108
45.702759,10086,-499,-13154
45.718384,10047,-477,-13140
45.734009,9980,-381,-13154
45.749634,9988,-333,-13195
45.765259,9852,-313,-13088
45.780884,9764,-272,-13124
45.796509,9702,-300,-13142
45.812134,9564,-349,-13061
45.827759,9539,-334,-13158
45.843384,9473,-381,-13133
45.859009,9391,-427,-13086
45.874634,9363,-472,-13154
45.890259,9313,-613,-13088
45.905884,9281,-684,-13083
45.921509,9314,-741,-13113
45.937134,9332,-841,-13086
45.952759,9331,-904,-13158
45.968384,9400,-1004,-13176
45.984009,9479,-1095,-13088
45.999634,9566,-1147,-13113
46.015259,9638,-1202,-13188
46.030884,9727,-1193,-13128
46.046509,9879,-1195,-13086
46.062134,9947,-1222,-13165
46.077759,10020,-1213,-13169
46.093384,10148,-1186,-13092
46.108887,10223,-1140,-13092
46.124512,10279,-1122,-13122
46.140137,10354,-1106,-13094
46.155762,10400,-1024,-13103
46.171387,10457,-915,-13140
46.187012,10502,-809,-13078
46.202637,10496,-702,-13079
46.218262,10520,-634,-13167
46.233887,10505,-609,-13142
46.249512,10468,-565,-13149
46.265137,10432,-490,-13176
46.280762,10304,-386,-13103
46.296387,10259,-320,-13151
46.312012,10218,-342,-13197
46.327637,10070,-363,-13115
46.343262,10005,-354,-13147
46.358887,9934,-349,-13138
46.374512,9843,-375,-13072
46.390137,9818,-442,-13144
46.405762,9770,-527,-13163
46.421387,9727,-631,-13094
46.437012,9711,-734,-13099
46.452637,9670,-799,-13101
46.468262,9689,-863,-13078
46.483887,9743,-940,-13126
46.499512,9791,-1025,-13165
46.515137,9889,-1115,-13131
46.530762,9984,-1190,-13119
46.546387,10039,-1241,-13136
46.562012,10089,-1247,-13153
46.577637,10223,-1231,-13086
46.593262,10347,-1240,-13103
46.608887,10384,-1254,-13222
46.624512,10525,-1183,-13092
46.640137,10638,-1156,-13063
46.655762,10655,-1168,-13151
46.671387,10714,-1047,-13017
46.687012,10798,-993,-13063
46.702637,10857,-934,-13163
46.718262,10875,-804,-13135
46.733887,10902,-774,-13165
46.749512,10863,-709,-13108
46.765137,10805,-640,-13101
46.780762,10763,-563,-13126
46.796387,10688,-436,-13094
46.812012,10677,-399,-13167
46.827637,10614,-384,-13176
46.843262,10527,-340,-13178
46.858887,10452,-358,-13179
46.874512,10307,-420,-13076
46.890137,10236,-400,-13090
46.905762,10204,-427,-13094
46.921387,10138,-540,-13097
46.937012,10113,-583,-13186
46.952637,10075,-679,-13106
46.968262,10029,-791,-13047
46.983887,10029,-843,-13101
46.999512,10059,-961,-13092
47.015137,10116,-1072,-13115
47.030762,10189,-1100,-13169
47.046387,10279,-1166,-13126
47.062012,10350,-1245,-13095
47.077637,10382,-1257,-13158
47.093262,10484,-1274,-13126
47.108887,10641,-1268,-13092
47.124512,10761,-1268,-13176
47.140137,10870,-1256,-13133
47.155762,10939,-1211,-13085
47.171387,10950,-1202,-13120
47.187012,11025,-1122,-13022
47.202637,11123,-1043,-13042
47.218262,11166,-995,-13169
47.233887,11214,-879,-13154
47.249512,11248,-838,-13158
47.265137,11195,-779,-13131
47.280762,11118,-638,-13079
47.296387,11102,-559,-13095
47.312012,11061,-492,-13113
47.327637,11034,-429,-13195
47.343262,10980,-415,-13211
47.358887,10846,-408,-13140
47.374512,10761,-390,-13185
47.390137,10661,-404,-13129
47.405762,10548,-429,-13031
47.421387,10516,-461,-13108
47.437012,10468,-543,-13122
47.452637,10411,-616,-13106
47.468262,10382,-709,-13124
47.483887,10327,-806,-13097
47.499512,10318,-858,-13065
47.515137,10391,-966,-13044
47.530762,10441,-1074,-13117
47.546387,10495,-1125,-13185
47.562012,10589,-1186,-13097
47.577637,10645,-1252,-13101
47.593262,10702,-1288,-13181
47.608887,10845,-1286,-13058
47.624512,10964,-1322,-13072
47.640137,11011,-1349,-13226
47.655762,11150,-1243,-13056
47.671387,11257,-1206,-13022
47.687012,11257,-1209,-13167
47.702637,11350,-1072,-13024
47.718262,11443,-1050,-13051
47.733887,11452,-1056,-13179
47.749512,11475,-908,-13085
47.765137,11516,-825,-13119
47.780762,11482,-740,-13163
47.796387,11430,-624,-13090
47.812012,11384,-583,-13081
47.827637,11318,-540,-13119
47.843262,11279,-459,-13142
47.858887,11195,-404,-13144
47.874512,11150,-386,-13195
47.890137,11087,-413,-13192
47.905762,10900,-490,-13063
47.921387,10798,-495,-13074
47.937012,10761,-529,-13088
47.952637,10702,-611,-13047
47.968262,10689,-627,-13172
47.983887,10675,-740,-13176
47.999512,10641,-890,-13069
48.015137,10627,-977,-13097
48.030762,10666,-1072,-13090
48.046387,10730,-1118,-13099
48.062012,10816,-1145,-13169
48.077637,10927,-1211,-13131
48.093262,11025,-1293,-13092
48.109009,11071,-1361,-13140
48.124634,11130,-1345,-13110
48.140259,11259,-1295,-13051
48.155884,11361,-1277,-13104
48.171509,11480,-1245,-13133
48.187134,11602,-1232,-13144
48.202759,11634,-1209,-13133
48.218384,11646,-1131,-13044
48.234009,11679,-1079,-13061
48.249634,11725,-959,-13103
48.265259,11778,-816,-13128
48.280884,11791,-766,-13186
48.296509,11741,-690,-13136
48.312134,11693,-656,-13101
48.327759,11596,-618,-13099
48.343384,11505,-481,-13074
48.359009,11491,-393,-13138
48.374634,11452,-408,-13192
48.390259,11393,-442,-13213
48.405884,11257,-495,-13190
48.421509,11079,-549,-13063
48.437134,10995,-536,-13001
48.452759,10952,-568,-13045
48.468384,10934,-665,-13122
48.484009,10954,-749,-13185
48.499634,10959,-918,-13145
48.515259,10900,-1050,-13095
48.530884,10873,-1081,-13054
48.546509,10970,-1138,-13061
48.562134,11071,-1191,-13195
48.577759,11177,-1254,-13181
48.593384,11323,-1338,-13065
48.609009,11352,-1382,-13181
48.624634,11405,-1379,-13186
48.640259,11582,-1340,-13020
48.655884,11654,-1306,-13092
48.671509,11741,-1261,-13136
48.687134,11896,-1224,-13079
48.702759,11937,-1229,-13140
48.718384,11943,-1150,-13086
48.734009,11980,-1034,-13036
48.749634,12021,-954,-13103
48.765259,12052,-818,-13094
48.780884,12086,-731,-13163
48.796509,12098,-734,-13226
48.812134,12055,-666,-13153
48.827759,11993,-579,-13153
48.843384,11893,-490,-13129
48.859009,11784,-395,-13088
48.874634,11770,-411,-13160
48.890259,11728,-493,-13161
48.905884,11598,-527,-13151
48.921509,11493,-522,-13158
48.937134,11437,-543,-13054
48.952759,11393,-609,-13063
48.968384,11352,-691,-13151
48.984009,11379,-820,-13106
48.999634,11416,-968,-13085
49.015259,11405,-1047,-13124
49.030884,11455,-1084,-13083
49.046509,11548,-1140,-13088
49.062134,11639,-1208,-13145
49.077759,11784,-1290,-13086
49.093384,11909,-1365,-13124
49.108887,11995,-1390,-13217
49.124512,12137,-1361,-13129
49.140137,12250,-1345,-13083
49.155762,12357,-1306,-13065
49.171387,12494,-1256,-13028
49.187012,12575,-1261,-13106
49.202637,12671,-1170,-13088
49.218262,12743,-1065,-13070
49.233887,12780,-988,-13094
49.249512,12837,-841,-13047
49.265137,12919,-815,-13145
49.280762,12950,-779,-13160
49.296387,12919,-663,-13131
49.312012,12886,-595,-13215
49.327637,12746,-515,-13142
49.343262,12682,-427,-13101
49.358887,12705,-404,-13133
49.374512,12630,-479,-13111
49.390137,12569,-554,-13181
49.405762,12518,-577,-13144
49.421387,12409,-593,-13042
49.437012,12402,-629,-13117
49.452637,12477,-729,-13108
49.468262,12443,-900,-13106
49.483887,12484,-1049,-13120
49.499512,12589,-1134,-13045
49.515137,12611,-1193,-13104
49.530762,12712,-1225,-13142
49.546387,12866,-1266,-13088
49.562012,12994,-1372,-13120
49.577637,13169,-1436,-13140
49.593262,13305,-1418,-13181
49.608887,13400,-1415,-13236
49.624512,13616,-1349,-13104
49.640137,13848,-1272,-13058
49.655762,13905,-1306,-13144
49.671387,13919,-1290,-13106
49.687012,14016,-1208,-13097
49.702637,14134,-1093,-13092
49.718262,14207,-911,-13067
49.733887,14282,-795,-13165
49.749512,14335,-793,-13135
49.765137,14309,-790,-13081
49.780762,14269,-643,-13192
49.796387,14175,-527,-13197
49.812012,14137,-542,-13197
49.827637,14148,-545,-13203
49.843262,14048,-645,-13131
49.858887,13964,-738,-13108
49.874512,13859,-752,-12983
49.890137,13814,-743,-12956
49.905762,13901,-734,-13165
49.921387,13991,-888,-13195
49.937012,14073,-1070,-13133
49.952637,14114,-1222,-13108
49.968262,14167,-1334,-13010
49.983887,14280,-1354,-13103
49.999512,14421,-1429,-13258
50.015137,14659,-1479,-13099
50.030762,14880,-1497,-13044
50.046387,14978,-1593,-13251
50.062012,15121,-1550,-13115
50.077637,15253,-1436,-12874
50.093262,15353,-1425,-12990
50.108887,15576,-1320,-13004
50.124512,15716,-1227,-12972
50.140137,15762,-1263,-13181
50.155762,15882,-1208,-13203
50.171387,15874,-1063,-13067
50.187012,15837,-950,-13061
50.202637,15923,-840,-13044
50.218262,15914,-745,-13019
50.233887,15844,-681,-13103
50.249512,15878,-656,-13240
50.265137,15849,-679,-13238
50.280762,15744,-681,-13170
50.296387,15644,-733,-13120
50.312012,15549,-884,-12958
50.327637,15576,-995,-12985
50.343262,15617,-1058,-13069
50.358887,15653,-1133,-13026
50.374512,15796,-1227,-13163
50.390137,15923,-1365,-13126
50.405762,16035,-1525,-12933
50.421387,16151,-1604,-13042
50.437012,16249,-1547,-13160
50.452637,16353,-1574,-13169
50.468262,16389,-1668,-13204
50.483887,16378,-1584,-13153
50.499512,16382,-1561,-13128
50.515137,16383,-1659,-13145
50.530762,16382,-1524,-13001
50.546387,16382,-1329,-13010
50.562012,16382,-1288,-13213
50.577637,16382,-1213,-13172
50.593262,16382,-1149,-13083
50.608887,16382,-1120,-13074
50.624512,16382,-966,-13044
50.640137,16382,-833,-13088
50.655762,16382,-804,-13111
50.671387,16382,-747,-13215
50.687012,16382,-791,-13283
50.702637,16382,-975,-13104
50.718262,16382,-993,-13011
50.733887,16382,-991,-12928
50.749512,16382,-1147,-12929
50.765137,16382,-1272,-13154
50.780762,16382,-1404,-13145
50.796387,16382,-1574,-13040
50.812012,16382,-1663,-13042
50.827637,16382,-1702,-13020
50.843262,16382,-1782,-13111
50.858887,16382,-1775,-13226
50.874512,16382,-1738,-13103
50.890137,16382,-1811,-13069
50.905762,16382,-1802,-13161
50.921387,16382,-1688,-12933
50.937012,16382,-1616,-12833
50.952637,16382,-1513,-13008
50.968262,16382,-1363,-13076
50.983887,16382,-1254,-13197
50.999512,16382,-1206,-13270
51.015137,16382,-1204,-13131
51.030762,16382,-1108,-13053
51.046387,16382,-931,-13070
51.062012,16382,-868,-13119
51.077637,16382,-924,-13229
51.093262,16382,-1038,-13210
51.108887,16382,-1165,-13092
51.124512,16382,-1286,-12958
51.140137,16382,-1363,-12885
51.155762,16382,-1431,-13033
51.171387,16382,-1540,-13106
51.187012,16382,-1688,-13088
51.202637,16382,-1863,-13122
51.218262,16382,-1943,-13095
51.233887,16382,-1916,-13092
51.249512,16382,-1882,-13060
51.265137,16382,-1904,-12990
51.280762,16382,-1918,-13060
51.296387,16382,-1799,-13070
51.312012,16382,-1711,-12956
51.327637,16382,-1740,-13029
51.343262,16382,-1618,-13033
51.358887,16382,-1468,-12983
51.374512,16382,-1399,-13199
51.390137,16382,-1234,-13197
51.405762,16382,-1149,-13110
51.421387,16382,-1161,-13210
51.437012,16382,-1127,-13136
51.452637,16382,-1106,-13028
51.468262,16382,-1179,-13094
51.483887,16382,-1302,-13086
51.499512,16382,-1415,-13024
51.515137,16382,-1609,-12995
51.530762,16382,-1813,-12958
51.546387,16382,-1824,-13044
51.562012,16382,-1891,-13151
51.577637,16382,-2073,-13154
51.593262,16382,-2082,-13138
51.608887,16382,-2098,-13110
51.624512,16382,-2115,-13094
51.640137,16382,-2011,-13029
51.655762,16382,-1872,-12858
51.671387,16382,-1811,-12865
51.687012,16382,-1811,-12947
51.702637,16382,-1766,-13004
51.718262,16382,-1702,-13185
51.733887,16382,-1531,-13238
51.749512,16382,-1409,-13136
51.765137,16382,-1400,-13058
51.780762,16382,-1325,-13010
51.796387,16382,-1225,-13110
51.812012,16382,-1261,-13161
51.827637,16382,-1365,-13042
51.843262,16382,-1425,-13024
51.858887,16382,-1616,-12944
51.874512,16382,-1904,-12906
51.890137,16382,-2086,-13079
51.905762,16382,-2143,-13056
51.921387,16382,-2075,-12983
51.937012,16382,-2148,-13088
51.952637,16382,-2275,-13045
51.968262,16382,-2173,-13065
51.983887,16382,-2175,-13099
51.999512,16382,-2107,-12910
52.015137,16382,-1918,-12883
52.030762,16382,-1947,-12906
52.046387,16382,-1927,-12970
52.062012,16382,-1807,-13144
52.077637,16382,-1659,-13192
52.093262,16382,-1518,-13183
52.108887,16382,-1497,-13085
52.124512,16382,-1470,-13035
52.140137,16382,-1431,-13128
52.155762,16382,-1454,-13086
52.171387,16382,-1506,-12990
52.187012,16382,-1577,-13001
52.202637,16382,-1759,-12954
52.218262,16382,-1956,-12874
52.233887,16382,-2134,-13024
52.249512,16382,-2384,-13076
52.265137,16382,-2377,-13020
52.280762,16382,-2282,-13104
52.296387,16382,-2391,-13013
52.312012,16382,-2429,-13010
52.327637,16382,-2316,-13053
52.343262,16382,-2157,-12835
52.358887,16382,-2140,-12842
52.374512,16382,-2156,-13017
52.390137,16382,-2018,-13074
52.405762,16382,-1811,-13169
52.421387,16382,-1663,-13160
52.437012,16382,-1613,-13104
52.452637,16382,-1574,-13115
52.468262,16382,-1577,-13106
52.483887,16382,-1593,-13069
52.499512,16382,-1670,-12986
52.515137,16382,-1854,-12929
52.530762,16382,-1997,-12892
52.546387,16382,-2179,-12863
52.562012,16382,-2400,-13083
52.577637,16382,-2518,-13265
52.593262,16382,-2497,-13036
52.608887,16382,-2502,-12976
52.624512,16382,-2538,-13174
52.640137,16382,-2500,-13108
52.655762,16382,-2427,-12862
52.671387,16382,-2316,-12831
52.687012,16382,-2282,-12919
52.702637,16382,-2270,-12997
52.718262,16382,-2179,-13115
52.733887,16382,-1981,-13153
52.749512,16382,-1790,-13188
52.765137,16382,-1800,-13158
52.780762,16382,-1770,-13111
52.796387,16382,-1731,-13074
52.812012,16382,-1856,-12958
52.827637,16382,-1922,-13004
52.843262,16382,-2047,-12928
52.858887,16382,-2284,-12756
52.874512,16382,-2418,-12960
52.890137,16382,-2543,-13115
52.905762,16382,-2688,-13083
52.921387,16382,-2731,-13142
52.937012,16382,-2641,-13120
52.952637,16382,-2611,-12967
52.968262,16382,-2656,-12831
52.983887,16382,-2579,-12729
52.999512,16382,-2457,-12763
53.015137,16382,-2390,-12997
53.030762,16382,-2259,-13165
53.046387,16382,-2127,-13195
53.062012,16382,-2045,-13179
53.077637,16382,-1952,-13136
53.093262,16382,-1938,-13070
53.108887,16382,-1986,-12949
53.124512,16382,-2048,-12972
53.140137,16382,-2198,-12974
53.155762,16382,-2432,-12828
53.171387,16382,-2638,-12874
53.187012,16382,-2763,-12960
53.202637,16382,-2811,-12976
53.218262,16382,-2834,-13103
53.233887,16382,-2870,-13144
53.249512,16382,-2888,-13056
53.265137,16382,-2852,-12963
53.280762,16382,-2766,-12790
53.296387,16382,-2691,-12731
53.312012,16382,-2609,-12890
53.327637,16382,-2464,-13065
53.343262,16382,-2254,-13165
53.358887,16382,-2125,-13172
53.374512,16382,-2115,-13151
53.390137,16382,-2104,-13120
53.405762,16382,-2047,-13017
53.421387,16382,-1975,-12979
53.437012,16382,-2048,-13017
53.452637,16382,-2265,-12958
53.468262,16382,-2461,-12870
53.483887,16382,-2664,-12876
53.499512,16382,-2811,-12999
53.515137,16382,-2831,-13129
53.530762,16382,-2829,-13126
53.546387,16382,-2814,-13074
53.562012,16382,-2793,-13051
53.577637,16382,-2748,-12965
53.593262,16382,-2650,-12831
53.608887,16382,-2618,-12797
53.624512,16382,-2531,-12919
53.640137,16382,-2304,-13120
53.655762,16382,-2168,-13220
53.671387,16382,-2081,-13117
53.687012,16382,-1984,-13108
53.702637,16382,-1956,-13117
53.718262,16382,-1913,-12961
53.733887,16382,-1843,-13017
53.749512,16382,-1922,-13117
53.765137,16382,-2150,-12981
53.780762,16382,-2386,-12863
53.796387,16382,-2575,-12887
53.812012,16382,-2627,-12995
53.827637,16382,-2618,-13095
53.843262,16382,-2673,-13108
53.858887,16382,-2723,-13060
53.874512,16382,-2729,-13086
53.890137,16382,-2702,-13070
53.905762,16382,-2589,-12858
53.921387,16382,-2434,-12717
53.937012,16382,-2386,-12883
53.952637,16382,-2329,-13128
53.968262,16382,-2166,-13194
53.983887,16382,-2063,-13220
53.999512,16382,-1968,-13181
54.015137,16382,-1832,-13042
54.030762,16382,-1757,-13081
54.046387,16382,-1765,-13136
54.062012,16382,-1852,-13061
54.077637,16382,-1970,-13010
54.093262,16382,-2159,-12926
54.108887,16382,-2309,-12844
54.124512,16382,-2434,-12922
54.140137,16382,-2581,-13110
54.155762,16382,-2611,-13188
54.171387,16382,-2618,-13092
54.187012,16382,-2681,-13095
54.202637,16382,-2704,-13179
54.218262,16382,-2534,-12904
54.233887,16382,-2422,-12704
54.249512,16382,-2475,-12942
54.265137,16382,-2331,-13003
54.280762,16382,-2157,-13072
54.296387,16382,-2073,-13260
54.312012,16382,-1923,-13106
54.327637,16382,-1802,-13015
54.343262,16382,-1727,-13097
54.358887,16382,-1688,-13103
54.374512,16382,-1718,-13128
54.390137,16382,-1759,-13122
54.405762,16382,-1825,-13004
54.421387,16382,-1995,-12812
54.437012,16382,-2179,-12756
54.452637,16382,-2282,-12967
54.468262,16382,-2361,-13201
54.483887,16382,-2441,-13176
54.499512,16382,-2527,-13104
54.515137,16382,-2606,-13135
54.530762,16382,-2564,-13029
54.546387,16382,-2466,-12890
54.562012,16382,-2368,-12862
54.577637,16382,-2263,-12903
54.593262,16382,-2254,-13026
54.608887,16382,-2197,-13083
54.624512,16382,-2011,-13119
54.640137,16382,-1882,-13158
54.655762,16382,-1777,-13042
54.671387,16382,-1631,-13069
54.687012,16382,-1591,-13174
54.702637,16382,-1659,-13101
54.718262,16382,-1627,-13129
54.733887,16382,-1666,-13040
54.749512,16382,-1841,-12853
54.765137,16382,-1934,-12944
54.780762,16382,-2102,-12965
54.796387,16382,-2298,-12944
54.812012,16382,-2345,-13113
54.827637,16382,-2400,-13120
54.843262,16382,-2475,-13015
54.858887,16382,-2506,-13078
54.874512,16382,-2504,-13108
54.890137,16382,-2395,-12967
54.905762,16382,-2291,-12892
54.921387,16382,-2247,-12976
54.937012,16382,-2172,-12954
54.952637,16382,-2025,-12924
54.968262,16382,-1848,-13138
54.983887,16382,-1740,-13219
54.999512,16382,-1663,-13070
55.015137,16382,-1581,-13108
55.030762,16382,-1536,-13151
55.046387,16382,-1509,-13053
55.062012,16382,-1504,-13122
55.077637,16382,-1588,-13072
55.093262,16382,-1706,-12872
55.108887,16382,-1816,-12972
55.124512,16382,-1995,-13004
55.140137,16382,-2150,-12965
55.155762,16382,-2202,-13145
55.171387,16382,-2272,-13104
55.187012,16382,-2348,-12997
55.202637,16382,-2388,-13156
55.218262,16382,-2363,-13076
55.233887,16382,-2306,-12931
55.249512,16382,-2256,-13017
55.265137,16382,-2141,-12920
55.280762,16382,-2109,-12936
55.296387,16382,-2056,-13097
55.312012,16382,-1863,-13083
55.327637,16382,-1731,-13104
55.343262,16382,-1609,-13145
55.358887,16382,-1518,-13104
55.374512,16382,-1506,-13053
55.390137,16382,-1418,-13147
55.405762,16382,-1341,-13219
55.421387,16382,-1424,-13053
55.437012,16382,-1541,-13008
55.452637,16382,-1647,-13047
55.468262,16382,-1800,-12874
55.483887,16382,-1952,-12969
55.499512,16382,-2056,-13160
55.515137,16382,-2156,-13044
55.530762,16382,-2247,-13135
55.546387,16382,-2277,-13178
55.562012,16382,-2309,-13004
55.577637,16382,-2298,-13094
55.593262,16382,-2165,-13078
55.608887,16382,-2077,-12890
55.624512,16382,-2068,-12972
55.640137,16382,-1991,-13065
55.655762,16382,-1909,-13045
55.671387,16382,-1832,-13088
55.687012,16382,-1636,-13081
55.702637,16382,-1466,-13078
55.718262,16382,-1450,-13095
55.733887,16382,-1416,-13119
55.749512,16382,-1316,-13186
55.765137,16382,-1307,-13117
55.780762,16382,-1334,-13020
55.796387,16382,-1366,-13063
55.812012,16382,-1497,-12990
55.827637,16382,-1663,-12936
55.843262,16382,-1818,-13056
55.858887,16382,-1904,-13051
55.874512,16382,-1961,-13085
55.890137,16382,-2079,-13135
55.905762,16382,-2154,-13049
55.921387,16382,-2202,-13065
55.937012,16382,-2227,-13126
55.952637,16382,-2127,-13104
55.968262,16382,-2034,-13058
55.983887,16382,-1998,-13024
55.999512,16382,-1972,-13008
56.015137,16382,-1950,-13008
56.030762,16382,-1820,-13065
56.046387,16382,-1599,-13185
56.062012,16382,-1447,-13206
56.077637,16382,-1411,-13099
56.093262,16382,-1391,-13045
56.108887,16382,-1306,-13053
56.124512,16382,-1199,-13088
56.140137,16382,-1147,-13186
56.155762,16382,-1186,-13183
56.171387,16382,-1316,-13047
56.187012,16382,-1470,-12979
56.202637,16382,-1618,-12949
56.218262,16382,-1709,-12949
56.233887,16382,-1747,-13038
56.249512,16382,-1834,-13149
56.265137,16382,-1961,-13195
56.280762,16382,-2066,-13056
56.296387,16382,-2127,-12990
56.312012,16382,-2113,-13149
56.327637,16382,-1993,-13083
56.343262,16382,-1850,-12920
56.358887,16382,-1831,-13053
56.374512,16382,-1911,-13094
56.390137,16382,-1936,-12981
56.405762,16382,-1820,-13056
56.421387,16382,-1581,-13135
56.437012,16382,-1372,-13072
56.452637,16382,-1282,-13051
56.468262,16382,-1274,-13086
56.483887,16382,-1290,-13078
56.499512,16382,-1234,-13076
56.515137,16382,-1065,-13156
56.530762,16382,-993,-13106
56.546387,16382,-1136,-13040
56.562012,16382,-1293,-13147
56.577637,16382,-1465,-13026
56.593262,16382,-1566,-12895
56.608887,16382,-1547,-13072
56.624512,16382,-1640,-13135
56.640137,16382,-1816,-13129
56.655762,16382,-1950,-13124
56.671387,16382,-2023,-13042
56.687012,16382,-2068,-13167
56.702637,16382,-2009,-13201
56.718262,16382,-1845,-13015
56.733887,16382,-1793,-13038
56.749512,16382,-1854,-13045
56.765137,16382,-1891,-12965
56.780762,16382,-1845,-13049
56.796387,16382,-1649,-13047
56.812012,16382,-1390,-13024
56.827637,16382,-1266,-13147
56.843262,16382,-1259,-13128
56.858887,16382,-1272,-13076
56.874512,16382,-1231,-13147
56.890137,16382,-1095,-13133
56.905762,16382,-945,-13108
56.921387,16382,-904,-13145
56.937012,16382,-1061,-13161
56.952637,16382,-1291,-13070
56.968262,16382,-1391,-12913
56.983887,16382,-1352,-12929
56.999512,16382,-1366,-13069
57.015137,16382,-1484,-13144
57.030762,16382,-1629,-13203
57.046387,16382,-1822,-13083
57.062012,16382,-1948,-12963
57.077637,16382,-1936,-13178
57.093262,16382,-1836,-13169
57.109009,16382,-1749,-12945
57.124634,16382,-1852,-13167
57.140259,16382,-1968,-13283
57.155884,16382,-1865,-12960
57.171509,16382,-1724,-12929
57.187134,16382,-1577,-13060
57.202759,16382,-1411,-13086
57.218384,16382,-1338,-13181
57.234009,16382,-1306,-13161
57.249634,16382,-1288,-13088
57.265259,16380,-1234,-13044
57.280884,16385,-1018,-13058
57.296509,16380,-811,-13183
57.312134,16378,-874,-13194
57.327759,16380,-986,-13195
57.343384,16199,-1049,-13149
57.359009,15926,-1134,-12924
57.374634,15812,-1099,-12942
57.390259,15778,-1154,-13044
57.405884,15785,-1331,-13061
57.421509,15762,-1418,-13210
57.437134,15732,-1584,-13110
57.452759,15730,-1761,-12956
57.468384,15648,-1740,-13165
57.484009,15717,-1709,-13195
57.499634,15923,-1738,-13028
57.515259,15989,-1804,-13111
57.530884,16017,-1920,-13190
57.546509,16055,-1873,-13126
57.562134,16035,-1715,-13044
57.577759,16071,-1609,-12944
57.593384,16151,-1557,-13020
57.609009,16223,-1497,-13131
57.624634,16246,-1407,-13133
57.640259,16153,-1325,-13178
57.655884,16003,-1193,-13106
57.671509,15899,-1077,-13011
57.687134,15866,-1013,-13069
57.702759,15749,-925,-13108
57.718384,15610,-888,-13172
57.734009,15487,-895,-13211
57.749634,15273,-893,-13120
57.765259,15094,-875,-13065
57.780884,14942,-938,-12999
57.796509,14801,-1052,-12979
57.812134,14783,-1136,-13113
57.827759,14778,-1263,-13122
57.843384,14671,-1329,-13088
57.859009,14596,-1399,-13097
57.874634,14619,-1556,-13017
57.890259,14648,-1645,-13076
57.905884,14696,-1674,-13185
57.921509,14819,-1686,-13136
57.937134,14917,-1700,-13135
57.952759,14941,-1720,-13174
57.968384,14992,-1691,-13092
57.984009,15046,-1624,-13008
57.999634,15092,-1595,-12997
58.015259,15110,-1584,-13035
58.030884,15100,-1491,-13160
58.046509,15160,-1377,-13170
58.062134,15142,-1247,-13033
58.077759,15030,-1133,-13042
58.093384,14950,-1090,-13088
58.108887,14887,-1015,-13090
58.124512,14819,-911,-13144
58.140137,14691,-822,-13179
58.155762,14585,-727,-13222
58.171387,14435,-738,-13172
58.187012,14216,-834,-13108
58.202637,14091,-852,-13140
58.218262,13935,-888,-13045
58.233887,13768,-965,-13042
58.249512,13700,-1027,-13140
58.265137,13659,-1129,-13090
58.280762,13644,-1234,-13061
58.296387,13634,-1350,-13036
58.312012,13596,-1445,-13067
58.327637,13612,-1484,-13138
58.343262,13719,-1532,-13081
58.358887,13762,-1618,-13142
58.374512,13801,-1690,-13145
58.390137,13914,-1690,-13031
58.405762,13901,-1690,-13203
58.421387,13962,-1579,-13128
58.437012,14123,-1440,-12895
58.452637,14084,-1491,-13094
58.468262,14000,-1479,-13088
58.483887,14032,-1399,-13004
58.499512,14078,-1329,-13140
58.515137,14059,-1149,-13079
58.530762,14039,-1029,-13085
58.546387,13982,-977,-13120
58.562012,13841,-879,-13056
58.577637,13760,-822,-13153
58.593262,13612,-790,-13133
58.608887,13450,-684,-13067
58.624512,13409,-643,-13165
58.640137,13282,-697,-13149
58.655762,13082,-734,-13085
58.671387,12884,-754,-13038
58.687012,12737,-775,-13011
58.702637,12671,-843,-13049
58.718262,12646,-925,-13104
58.733887,12698,-1054,-13142
58.749512,12744,-1300,-13092
58.765137,12684,-1491,-13047
58.780762,12644,-1500,-13065
58.796387,12677,-1456,-13149
58.812012,12743,-1466,-13154
58.827637,12807,-1507,-13042
58.843262,12753,-1586,-13135
58.858887,12761,-1616,-13186
58.874512,12918,-1538,-13011
58.890137,12994,-1507,-13022
58.905762,13066,-1474,-13051
58.921387,13105,-1434,-13047
58.937012,13032,-1407,-13160
58.952637,13016,-1261,-13138
58.968262,13046,-1127,-13092
58.983887,13010,-988,-13072
58.999512,12935,-825,-13063
59.015137,12912,-824,-13135
59.030762,12848,-872,-13149
59.046387,12752,-800,-13131
59.062012,12666,-691,-13111
59.077637,12546,-600,-13099
59.093262,12441,-531,-13165
59.109009,12266,-559,-13131
59.124634,12077,-647,-13079
59.140259,11927,-731,-13111
59.155884,11778,-825,-13058
59.171509,11746,-841,-13097
59.187134,11723,-861,-13138
59.202759,11627,-1008,-13074
59.218384,11582,-1138,-13145
59.234009,11555,-1199,-13092
59.249634,11512,-1247,-13017
59.265259,11543,-1307,-13194
59.280884,11670,-1370,-13185
59.296509,11766,-1425,-13070
59.312134,11789,-1511,-13194
59.327759,11843,-1509,-13197
59.343384,11909,-1456,-13054
59.359009,11946,-1461,-13083
59.374634,12007,-1418,-13110
59.390259,12084,-1404,-13058
59.405884,12064,-1372,-13017
59.421509,12057,-1227,-13051
59.437134,12146,-1150,-13142
59.452759,12096,-1074,-13103
59.468384,12036,-956,-13051
59.484009,12039,-897,-13097
59.499634,11943,-834,-13060
59.515259,11896,-725,-13094
59.530884,11848,-600,-13247
59.546509,11657,-584,-13181
59.562134,11511,-588,-13113
59.577759,11409,-538,-13136
59.593384,11209,-563,-13026
59.609009,11068,-554,-13036
59.624634,11036,-524,-13117
59.640259,10939,-608,-13076
59.655884,10816,-672,-13133
59.671509,10743,-711,-13185
59.687134,10666,-822,-13069
59.702759,10598,-979,-13013
59.718384,10571,-1091,-13117
59.734009,10586,-1163,-13174
59.749634,10655,-1245,-13101
59.765259,10720,-1297,-13138
59.780884,10743,-1350,-13179
59.796509,10764,-1370,-13070
59.812134,10766,-1352,-13113
59.827759,10836,-1363,-13156
59.843384,10948,-1388,-13038
59.859009,10954,-1425,-13081
59.874634,10975,-1406,-13131
59.890259,11043,-1293,-13078
59.905884,11100,-1209,-13119
59.921509,11173,-1147,-13104
59.937134,11168,-1058,-13111
59.952759,11134,-1008,-13217
59.968384,11134,-931,-13115
59.984009,11052,-831,-13026
59.999634,10968,-783,-13128
60.015259,10950,-684,-13111
60.030884,10927,-579,-13079
60.046509,10832,-549,-13188
60.062134,10664,-515,-13178
60.077759,10532,-472,-13115
60.093384,10420,-456,-13117
60.108887,10259,-452,-13051
60.124512,10141,-440,-13092
60.140137,10061,-486,-13158
60.155762,9934,-590,-13160
60.171387,9857,-640,-13183
60.187012,9806,-693,-13088
60.202637,9732,-781,-13092
60.218262,9693,-888,-13136
60.233887,9643,-984,-13019
60.249512,9639,-1050,-13103
60.265137,9675,-1140,-13197
60.280762,9648,-1168,-13090
60.296387,9666,-1227,-13111
60.312012,9738,-1331,-13113
60.327637,9779,-1311,-13086
60.343262,9841,-1300,-13179
60.358887,9945,-1322,-13147
60.374512,10023,-1286,-13136
60.390137,10068,-1232,-13190
60.405762,10086,-1184,-13124
60.421387,10052,-1211,-13113
60.437012,10075,-1197,-13092
60.452637,10154,-1088,-13070
60.468262,10189,-1036,-13206
60.483887,10205,-938,-13163
60.499512,10173,-815,-13067
60.515137,10157,-779,-13113
60.530762,10089,-674,-13040
60.546387,9948,-556,-13079
60.562012,9907,-515,-13238
60.577637,9832,-468,-13235
60.593262,9718,-424,-13186
60.608887,9638,-424,-13160
60.624512,9475,-452,-13101
60.640137,9313,-420,-13069
60.655762,9207,-354,-13106
60.671387,9127,-354,-13154
60.687012,9034,-417,-13144
60.702637,8920,-474,-13158
60.718262,8852,-540,-13156
60.733887,8765,-711,-12994
60.749512,8706,-804,-13047
60.765137,8761,-806,-13199
60.780762,8784,-899,-13085
60.796387,8720,-975,-13154
60.812012,8661,-1036,-13203
60.827637,8693,-1138,-13020
60.843262,8693,-1197,-13131
60.858887,8700,-1204,-13167
60.874512,8857,-1204,-13011
60.890137,8938,-1272,-13169
60.905762,8961,-1316,-13244
60.921387,9045,-1229,-13074
60.937012,9038,-1181,-13094
60.952637,9068,-1158,-13090
60.968262,9172,-1108,-12999
60.983887,9193,-1138,-13165
60.999512,9272,-1090,-13260
61.015137,9334,-979,-13136
61.030762,9250,-906,-13147
61.046387,9195,-770,-13101
61.062012,9191,-681,-13031
61.077637,9154,-647,-13128
61.093262,9111,-608,-13210
61.108887,9066,-592,-13219
61.124512,8970,-520,-13167
61.140137,8866,-374,-13129
61.155762,8754,-283,-13072
61.171387,8604,-275,-12999
61.187012,8522,-279,-13081
61.202637,8443,-313,-13149
61.218262,8354,-304,-13133
61.233887,8322,-249,-13211
61.249512,8220,-342,-13181
61.265137,8070,-475,-13045
61.280762,7961,-522,-13097
61.296387,7909,-599,-13129
61.312012,7872,-658,-13083
61.327637,7775,-674,-13149
61.343262,7729,-747,-13179
61.358887,7770,-836,-13117
61.374512,7756,-940,-13058
61.390137,7759,-1041,-13042
61.405762,7791,-1054,-13176
61.421387,7825,-1036,-13222
61.437012,7943,-1061,-13086
61.452637,7952,-1145,-13147
61.468262,7904,-1199,-13185
61.483887,8004,-1184,-13076
61.499512,8063,-1170,-13174
61.515137,8156,-1141,-13163
61.530762,8307,-1129,-13049
61.546387,8291,-1141,-13194
61.562012,8257,-1086,-13178
61.577637,8290,-1025,-13029
61.593262,8266,-936,-13047
61.608887,8207,-793,-13078
61.624512,8256,-740,-13169
61.640137,8332,-699,-13170
61.655762,8265,-647,-13103
61.671387,8220,-629,-13145
61.687012,8181,-517,-13120
61.702637,8084,-358,-13120
61.718262,8016,-274,-13151
61.733887,7927,-263,-13099
61.749512,7875,-290,-13135
61.765137,7808,-292,-13192
61.780762,7675,-238,-13149
61.796387,7581,-159,-13108
61.812012,7493,-186,-13133
61.827637,7395,-277,-13167
61.843262,7254,-322,-13140
61.858887,7111,-361,-13094
61.874512,7038,-381,-13083
61.890137,6983,-420,-13085
61.905762,6943,-479,-13131
61.921387,6913,-542,-13185
61.937012,6897,-647,-13128
61.952637,6865,-733,-13097
61.968262,6806,-786,-13129
61.983887,6818,-815,-13108
61.999512,6859,-858,-13120
62.015137,6884,-956,-13120
62.030762,6918,-1029,-13097
62.046387,6947,-1084,-13124
62.062012,7009,-1088,-13138
62.077637,7083,-1038,-13174
62.093262,7136,-1059,-13156
62.108887,7186,-1079,-13078
62.124512,7227,-1086,-13122
62.140137,7252,-1099,-13156
62.155762,7242,-1063,-13106
62.171387,7259,-1043,-13138
62.187012,7340,-949,-13110
62.202637,7386,-824,-13086
62.218262,7400,-813,-13245
62.233887,7447,-749,-13201
62.249512,7450,-683,-13074
62.265137,7370,-670,-13165
62.280762,7293,-549,-13131
62.296387,7288,-440,-13097
62.312012,7308,-418,-13186
62.327637,7240,-392,-13131
62.343262,7122,-359,-13106
62.358887,7036,-290,-13158
62.374512,6956,-199,-13140
62.390137,6890,-158,-13131
62.405762,6820,-163,-13153
62.421387,6697,-177,-13174
62.437012,6547,-186,-13144
62.452637,6442,-175,-13104
62.468262,6406,-147,-13144
62.483887,6368,-163,-13147
62.499512,6311,-213,-13170
62.515137,6233,-308,-13206
62.530762,6111,-413,-13101
62.546387,6002,-408,-13053
62.562012,5965,-445,-13086
62.577637,5970,-561,-13108
62.593262,5961,-613,-13204
62.608887,5983,-711,-13161
62.624512,5993,-825,-13079
62.640137,5935,-845,-13178
62.655762,5960,-870,-13131
62.671387,6011,-906,-13110
62.687012,5999,-922,-13203
62.702637,6065,-977,-13115
62.718262,6135,-1043,-13154
62.733887,6138,-1022,-13233
62.749512,6217,-968,-13092
62.765137,6283,-1020,-13104
62.780762,6283,-1108,-13190
62.796387,6352,-1079,-13110
62.812012,6367,-1008,-13138
62.827637,6379,-941,-13190
62.843262,6477,-816,-13092
62.858887,6497,-750,-13106
62.874512,6534,-741,-13149
62.890137,6570,-749,-13178
62.905762,6522,-745,-13203
62.921387,6486,-624,-13101
62.937012,6506,-506,-13136
62.952637,6476,-400,-13170
62.968262,6370,-306,-13088
62.983887,6381,-347,-13131
62.999512,6331,-343,-13142
63.015137,6211,-261,-13145
63.030762,6186,-192,-13165
63.046387,6115,-97,-13124
63.062012,6052,-70,-13128
63.077637,5965,-111,-13140
63.093262,5808,-118,-13133
63.108887,5718,-67,-13144
63.124512,5649,-13,-13104
63.140137,5595,-27,-13145
63.155762,5565,-79,-13236
63.171387,5472,-154,-13181
63.187012,5345,-209,-13126
63.202637,5231,-250,-13069
63.218262,5174,-283,-13036
63.233887,5165,-304,-13167
63.249512,5133,-386,-13235
63.265137,5138,-465,-13185
63.280762,5110,-529,-13120
63.296387,5015,-622,-13065
63.312012,4983,-668,-13094
63.327637,5020,-684,-13174
63.343262,5076,-708,-13183
63.358887,5119,-774,-13136
63.374512,5144,-888,-13119
63.390137,5169,-934,-13119
63.405762,5183,-893,-13145
63.421387,5204,-872,-13135
63.437012,5295,-906,-13079
63.452637,5322,-993,-13194
63.468262,5308,-1041,-13238
63.483887,5377,-956,-13065
63.499512,5427,-909,-13083
63.515137,5483,-883,-13144
63.530762,5577,-809,-13124
63.546387,5597,-850,-13174
63.562012,5558,-815,-13136
63.577637,5590,-733,-13122
63.593262,5635,-709,-13110
63.608887,5601,-606,-13090
63.624512,5643,-592,-13204
63.640137,5668,-534,-13126
63.655762,5593,-409,-13074
63.671387,5586,-420,-13203
63.687012,5538,-345,-13101
63.702637,5490,-238,-13113
63.718262,5474,-234,-13238
63.733887,5392,-202,-13101
63.749512,5367,-159,-13088
63.765137,5294,-108,-13179
63.780762,5185,-47,-13117
63.796387,5129,-34,-13124
63.812012,5045,-25,-13195
63.827637,4983,0,-13154
63.843262,4865,-8,-13085
63.858887,4760,24,-13133
63.874512,4740,17,-13154
63.890137,4654,-50,-13083
63.905762,4572,-45,-13142
63.921387,4513,-92,-13192
63.937012,4420,-181,-13104
63.952637,4361,-168,-13115
63.968262,4301,-175,-13181
63.983887,4283,-261,-13115
63.999512,4285,-367,-13119
64.015137,4237,-424,-13217
64.030762,4219,-458,-13110
64.046387,4165,-524,-13085
64.062012,4103,-543,-13203
64.077637,4187,-579,-13113
64.093262,4217,-658,-13154
64.108887,4179,-697,-13249
64.124512,4279,-777,-13072
64.140137,4272,-811,-13129
64.155762,4208,-775,-13249
64.171387,4347,-836,-13081
64.187012,4383,-877,-13138
64.202637,4395,-834,-13210
64.218262,4515,-858,-13090
64.233887,4470,-925,-13190
64.249512,4510,-884,-13197
64.265137,4629,-829,-13070
64.280762,4603,-838,-13128
64.296387,4635,-797,-13136
64.312012,4678,-749,-13142
64.327637,4717,-704,-13172
64.343262,4779,-658,-13103
64.358887,4724,-663,-13124
64.374512,4728,-627,-13199
64.390137,4822,-572,-13176
64.405762,4795,-524,-13094
64.421387,4711,-433,-13095
64.437012,4719,-374,-13188
64.452637,4756,-322,-13124
64.468262,4731,-277,-13106
64.483887,4722,-267,-13206
64.499512,4661,-213,-13124
64.515137,4581,-136,-13115
64.530762,4533,-50,-13203
64.546387,4454,7,-13122
64.562012,4431,16,-13117
64.577637,4372,30,-13204
64.593262,4262,37,-13154
64.608887,4204,69,-13119
64.624512,4144,37,-13156
64.640137,4070,-6,-13126
64.655762,3979,64,-13088
64.671387,3901,82,-13145
64.687012,3833,46,-13165
64.702637,3745,48,-13136
64.718262,3681,32,-13170
64.733887,3633,-18,-13170
64.749512,3601,-52,-13167
64.765137,3547,-90,-13167
64.780762,3471,-129,-13103
64.796387,3447,-143,-13104
64.812012,3406,-217,-13144
64.827637,3349,-288,-13156
64.843262,3351,-318,-13172
64.858887,3378,-379,-13174
64.874512,3363,-447,-13140
64.890137,3306,-511,-13088
64.905762,3301,-538,-13133
64.921387,3328,-550,-13170
64.937012,3365,-611,-13122
64.952637,3369,-670,-13172
64.968262,3383,-702,-13136
64.983887,3451,-713,-13076
64.999512,3433,-711,-13242
65.015137,3499,-768,-13183
65.030762,3622,-818,-13042
65.046387,3553,-790,-13208
65.062012,3560,-752,-13163
65.077637,3649,-752,-13069
65.093262,3631,-795,-13208
65.108887,3699,-777,-13126
65.124512,3783,-754,-13103
65.140137,3770,-777,-13245
65.155762,3794,-709,-13140
65.171387,3808,-718,-13090
65.187012,3838,-700,-13167
65.202637,3906,-588,-13142
65.218262,3920,-613,-13140
65.233887,3942,-579,-13178
65.249512,3953,-511,-13213
65.265137,3908,-470,-13142
65.280762,3892,-390,-13072
65.296387,3890,-413,-13160
65.312012,3899,-342,-13131
65.327637,3899,-233,-13108
65.343262,3869,-265,-13213
65.358887,3842,-202,-13129
65.374512,3804,-143,-13070
65.390137,3735,-97,-13167
65.405762,3665,57,-13145
65.421387,3660,99,-13131
65.437012,3644,39,-13206
65.452637,3579,32,-13219
65.468262,3538,94,-13188
65.483887,3449,139,-13145
65.499512,3346,130,-13138
65.515137,3288,132,-13136
65.530762,3213,137,-13101
65.546387,3171,153,-13158
65.562012,3133,157,-13215
65.577637,3051,174,-13169
65.593262,2990,183,-13140
65.608887,2928,146,-13163
65.624512,2871,94,-13135
65.640137,2812,26,-13097
65.655762,2758,28,-13149
65.671387,2744,46,-13160
65.687012,2701,16,-13133
65.702637,2630,-67,-13165
65.718262,2581,-158,-13158
65.733887,2512,-163,-13136
65.749512,2521,-209,-13117
65.765137,2565,-252,-13133
65.780762,2472,-256,-13201
65.796387,2481,-320,-13136
65.812012,2503,-379,-13111
65.827637,2446,-442,-13169
65.843262,2503,-479,-13131
65.858887,2517,-468,-13147
65.874512,2512,-525,-13169
65.890137,2555,-597,-13170
65.905762,2537,-629,-13156
65.921387,2555,-652,-13088
65.937012,2567,-663,-13169
65.952637,2581,-674,-13201
65.968262,2678,-681,-13104
65.983887,2680,-691,-13190
65.999512,2713,-731,-13203
66.015137,2785,-754,-13122
66.030762,2744,-733,-13172
66.046387,2801,-675,-13117
66.062012,2874,-677,-13131
66.077637,2878,-734,-13238
66.093262,2955,-691,-13151
66.108887,2947,-679,-13138
66.124512,2924,-684,-13161
66.140137,3040,-620,-13099
66.155762,3049,-609,-13167
66.171387,3031,-543,-13161
66.187012,3088,-525,-13117
66.202637,3078,-531,-13149
66.218262,3060,-443,-13119
66.233887,3094,-459,-13126
66.249512,3097,-411,-13117
66.265137,3078,-315,-13160
66.280762,3071,-313,-13219
66.296387,3056,-217,-13081
66.312012,3083,-211,-13090
66.327637,3078,-213,-13194
66.343262,3017,-108,-13135
66.358887,3013,-122,-13174
66.374512,2987,-67,-13204
66.390137,2935,10,-13122
66.405762,2890,19,-13126
66.421387,2855,69,-13126
66.437012,2815,107,-13110
66.452637,2780,166,-13179
66.468262,2769,214,-13222
66.483887,2688,226,-13190
66.499512,2630,198,-13192
66.515137,2596,182,-13163
66.530762,2469,216,-13069
66.546387,2431,226,-13094
66.562012,2426,219,-13153
66.577637,2344,187,-13151
66.593262,2312,226,-13190
66.608887,2246,249,-13158
66.624512,2165,223,-13101
66.640137,2142,230,-13136
66.655762,2067,144,-13145
66.671387,2017,133,-13145
66.687012,1999,183,-13129
66.702637,1921,124,-13147
66.718262,1889,149,-13185
66.733887,1871,121,-13113
66.749512,1819,-40,-13160
66.765137,1792,-49,-13215
66.780762,1760,-31,-13110
66.796387,1733,-79,-13136
66.812012,1687,-63,-13178
66.827637,1665,-88,-13154
66.843262,1690,-197,-13179
66.858887,1674,-225,-13108
66.874512,1658,-261,-13094
66.890137,1630,-359,-13231
66.905762,1635,-320,-13208
66.921387,1665,-309,-13142
66.937012,1631,-436,-13186
66.952637,1617,-436,-13119
66.968262,1664,-434,-13103
66.983887,1685,-542,-13194
66.999512,1699,-486,-13165
67.015137,1767,-490,-13128
67.030762,1760,-656,-13140
67.046387,1715,-602,-13115
67.062012,1749,-552,-13106
67.077637,1790,-683,-13151
67.093262,1824,-643,-13190
67.109009,1878,-579,-13158
67.124634,1917,-722,-13144
67.140259,1883,-747,-13215
67.155884,1892,-600,-13149
67.171509,1990,-633,-13026
67.187134,1972,-704,-13167
67.202759,1980,-615,-13206
67.218384,2087,-647,-13085
67.234009,2044,-700,-13195
67.249634,2065,-511,-13147
67.265259,2167,-542,-13029
67.280884,2130,-740,-13201
67.296509,2142,-543,-13211
67.312134,2187,-467,-13122
67.327759,2158,-613,-13119
67.343384,2167,-420,-13070
67.359009,2192,-334,-13126
67.374634,2206,-504,-13178
67.390259,2242,-431,-13183
67.405884,2228,-311,-13188
67.421509,2185,-338,-13092
67.437134,2181,-324,-13097
67.452759,2192,-175,-13144
67.468384,2231,-150,-13136
67.484009,2247,-304,-13233
67.499634,2197,-145,-13192
67.515259,2181,-6,-13126
67.530884,2156,-195,-13194
67.546509,2078,-79,-13072
67.562134,2081,135,-13056
67.577759,2139,-34,-13226
67.593384,2067,-65,-13129
67.609009,2031,141,-13103
67.624634,2092,112,-13270
67.640259,1980,80,-13153
67.655884,1897,226,-13072
67.671509,1956,242,-13208
67.687134,1869,137,-13131
67.702759,1787,151,-13106
67.718384,1830,291,-13253
67.734009,1774,307,-13199
67.749634,1698,207,-13119
67.765259,1665,255,-13151
67.780884,1615,357,-13136
67.796509,1565,291,-13090
67.812134,1499,241,-13111
67.827759,1501,366,-13208
67.843384,1489,371,-13179
67.859009,1383,246,-13128
67.874634,1383,287,-13220
67.890259,1330,332,-13119
67.905884,1212,266,-13047
67.921509,1246,249,-13217
67.937134,1215,260,-13154
67.952759,1153,280,-13131
67.968384,1137,278,-13240
67.984009,1057,216,-13099
67.999634,1042,223,-13101
68.015259,1044,198,-13210
68.030884,996,85,-13119
68.046509,976,87,-13133
68.062134,944,149,-13176
68.077759,889,123,-13133
68.093384,869,48,-13158
68.108887,855,17,-13153
68.124512,839,19,-13165
68.140137,839,-38,-13179
68.155762,807,-99,-13120
68.171387,773,-61,-13158
68.187012,789,-58,-13178
68.202637,814,-129,-13133
68.218262,799,-181,-13135
68.233887,771,-249,-13161
68.249512,776,-242,-13186
68.265137,778,-233,-13140
68.280762,774,-286,-13117
68.296387,751,-272,-13176
68.312012,742,-272,-13104
68.327637,789,-363,-13070
68.343262,785,-411,-13229
68.358887,814,-381,-13154
68.374512,887,-390,-13054
68.390137,823,-447,-13254
68.405762,812,-486,-13167
68.421387,878,-506,-13006
68.437012,815,-481,-13247
68.452637,855,-492,-13217
68.468262,953,-550,-13049
68.483887,887,-554,-13229
68.499512,908,-552,-13235
68.515137,989,-575,-13088
68.530762,962,-583,-13147
68.546387,955,-599,-13208
68.562012,999,-583,-13115
68.577637,1065,-559,-13090
68.593262,1057,-581,-13258
68.608887,1060,-567,-13186
68.624512,1180,-517,-13013
68.640137,1117,-572,-13249
68.655762,1071,-620,-13235
68.671387,1214,-534,-12963
68.687012,1132,-542,-13210
68.702637,1117,-547,-13217
68.718262,1273,-488,-12970
68.733887,1201,-586,-13261
68.749512,1233,-599,-13267
68.765137,1324,-493,-13038
68.780762,1244,-518,-13210
68.796387,1269,-472,-13160
68.812012,1273,-479,-13054
68.827637,1258,-522,-13195
68.843262,1333,-393,-13156
68.858887,1337,-397,-13120
68.874512,1348,-434,-13181
68.890137,1385,-390,-13158
68.905762,1356,-388,-13138
68.921387,1355,-327,-13122
68.937012,1396,-308,-13183
68.952637,1396,-304,-13206
68.968262,1385,-238,-13120
68.983887,1371,-224,-13158
68.999512,1364,-208,-13149
69.015137,1360,-174,-13086
69.030762,1348,-170,-13174
69.046387,1389,-156,-13192
69.062012,1410,-115,-13140
69.077637,1381,-100,-13169
69.093262,1371,-83,-13151
69.109009,1392,-13,-13110
69.124634,1392,5,-13167
69.140259,1321,8,-13195
69.155884,1308,21,-13169
69.171509,1299,19,-13142
69.187134,1210,51,-13120
69.202759,1242,78,-13154
69.218384,1265,126,-13142
69.234009,1196,180,-13138
69.249634,1249,155,-13190
69.265259,1251,105,-13131
69.280884,1182,158,-13122
69.296509,1178,255,-13181
69.312134,1123,255,-13153
69.327759,1094,239,-13153
69.343384,1067,216,-13124
69.359009,1012,219,-13110
69.374634,1032,278,-13170
69.390259,998,312,-13136
69.405884,985,337,-13161
69.421509,992,287,-13192
69.437134,889,283,-13097
69.452759,908,423,-13163
69.468384,924,407,-13206
69.484009,823,337,-13113
69.499634,858,364,-13188
69.515259,821,307,-13195
69.530884,717,326,-13104
69.546509,782,444,-13194
69.562134,719,383,-13183
69.577759,633,348,-13104
69.593384,699,408,-13197
69.609009,617,353,-13147
69.624634,573,407,-13111
69.640259,651,455,-13233
69.655884,555,301,-13165
69.671509,519,371,-13161
69.687134,535,419,-13195
69.702759,410,271,-13088
69.718384,432,398,-13160
69.734009,457,430,-13190
69.749634,378,237,-13128
69.765259,403,332,-13206
69.780884,371,394,-13158
69.796509,278,258,-13074
69.812134,292,335,-13147
69.827759,289,389,-13172
69.843384,248,223,-13144
69.859009,249,237,-13172
69.874634,253,339,-13186
69.890259,214,226,-13099
69.905884,155,166,-13070
69.921509,166,278,-13186
69.937134,151,241,-13192
69.952759,87,128,-13108
69.968384,92,233,-13186
69.984009,103,274,-13195
69.999634,98,98,-13047
70.015259,105,103,-13133
70.030884,78,226,-13238
70.046509,51,94,-13122
70.062134,33,42,-13142
70.077759,19,160,-13163
70.093384,8,110,-13106
70.108887,5,8,-13178
70.124512,26,-11,-13154
70.140137,-2,55,-13144
70.155762,-58,26,-13195
70.171387,-47,-93,-13088
70.187012,-33,16,-13120
70.202637,-33,76,-13204
70.218262,-11,-100,-13124
70.233887,-27,-131,-13170
70.249512,-59,-34,-13194
70.265137,-75,-59,-13106
70.280762,-95,-152,-13156
70.296387,-90,-154,-13172
70.312012,-84,-67,-13138
70.327637,-83,-93,-13169
70.343262,-61,-242,-13158
70.358887,-67,-224,-13178
70.374512,-58,-124,-13170
