;Title, http://www.gcdataconcepts.com, x2-2,Kionix KXRB5-2050
;Version, 1102, Build date, Oct  6 2015,  SN:CCDC10023F56AE8
;Start_time, 2007-02-13, 02:40:15.785
;Temperature, -999.00, deg C,  Vbat, 4138, mv
;Gain, high
;SampleRate, 64,Hz
;Deadband, 0, counts
;DeadbandTimeout, 0,sec
;Headers, time,Ax,Ay,Az
0.376953,694,1944,-13081
0.392578,514,1953,-13101
0.408203,580,1974,-12869
0.423828,801,2049,-13038
0.439453,699,2146,-13185
0.455078,649,2231,-13078
0.470703,851,2317,-13176
0.501953,785,2344,-13228
0.517578,612,2319,-13072
0.533203,707,2306,-13033
0.548828,694,2305,-13047
0.564453,519,2283,-12969
0.580078,607,2297,-12958
0.595703,705,2387,-13092
0.611328,603,2462,-13108
0.626953,637,2526,-13061
0.642578,760,2621,-13190
0.658203,730,2665,-13167
0.673828,639,2635,-13017
0.689453,648,2619,-13051
0.705078,721,2605,-13026
0.720703,692,2562,-12942
0.736328,615,2581,-13015
0.751953,678,2669,-13081
0.767578,746,2683,-13051
0.783203,694,2687,-13090
0.798828,699,2765,-13144
0.814453,799,2780,-13067
0.830078,764,2774,-13019
0.845703,694,2835,-13117
0.861328,746,2862,-13120
0.876953,832,2824,-12935
0.892578,869,2797,-12919
0.908203,867,2799,-13069
0.923828,933,2801,-12994
0.939453,974,2826,-12960
0.955078,964,2881,-13170
0.970703,1048,2906,-13179
0.986328,1115,2894,-13051
1.001953,1101,2872,-13119
1.017578,1089,2844,-13085
1.033203,1144,2855,-12879
1.048828,1239,2901,-12904
1.064453,1208,2938,-13020
1.080078,1230,2999,-12972
1.095703,1442,3049,-13017
1.111328,1476,3065,-13197
1.126953,1448,3071,-13188
1.142578,1642,3042,-13060
1.158203,1676,3010,-13086
1.173828,1548,3013,-13060
1.189453,1658,3058,-12845
1.205078,1749,3113,-12831
1.220703,1692,3203,-12981
1.236328,1821,3338,-12933
1.251953,1971,3444,-12990
1.267578,1992,3476,-13222
1.283203,2147,3497,-13145
1.298828,2317,3526,-12990
1.314453,2315,3506,-13001
1.330078,2328,3529,-12881
1.345703,2431,3621,-12758
1.361328,2463,3738,-12838
1.376953,2455,3940,-12958
1.392578,2555,4145,-13013
1.408203,2703,4249,-13054
1.423828,2780,4254,-13008
1.439453,2853,4231,-12815
1.455078,3001,4270,-12770
1.470703,3096,4370,-12899
1.486328,3115,4538,-12938
1.501953,3156,4756,-12995
1.517578,3242,4872,-12995
1.533203,3299,4903,-12870
1.548828,3265,4944,-12808
1.564453,3296,5006,-12770
1.580078,3376,5124,-12826
1.595703,3379,5281,-12954
1.611328,3381,5411,-12931
1.626953,3478,5511,-12887
1.642578,3544,5576,-12901
1.658203,3504,5592,-12835
1.673828,3553,5635,-12842
1.689453,3604,5720,-12865
1.705078,3490,5829,-12820
1.720703,3412,5940,-12929
1.736328,3390,6020,-12912
1.751953,3297,6070,-12753
1.767578,3331,6097,-12826
1.783203,3403,6133,-12833
1.798828,3313,6181,-12720
1.814453,3315,6233,-12806
1.830078,3351,6318,-12903
1.845703,3253,6411,-12885
1.861328,3203,6442,-12869
1.876953,3249,6409,-12820
1.892578,3253,6329,-12749
1.908203,3188,6274,-12722
1.923828,3183,6306,-12774
1.939453,3188,6383,-12840
1.955078,3142,6438,-12838
1.970703,3167,6459,-12903
1.986328,3212,6456,-12929
2.001953,3213,6383,-12733
2.017578,3219,6304,-12742
2.033203,3217,6313,-12928
2.048828,3262,6351,-12767
2.064453,3324,6390,-12706
2.080078,3321,6415,-12958
2.095703,3415,6376,-12885
2.111328,3546,6327,-12729
2.126953,3542,6304,-12910
2.142578,3601,6279,-12915
2.158203,3710,6274,-12726
2.173828,3690,6290,-12817
2.189453,3724,6320,-12903
2.205078,3844,6359,-12713
2.220703,3887,6395,-12679
2.236328,3940,6434,-12881
2.251953,4081,6483,-12854
2.267578,4199,6527,-12699
2.283203,4283,6545,-12837
2.298828,4376,6556,-12913
2.314453,4465,6620,-12681
2.330078,4519,6686,-12649
2.345703,4576,6726,-12801
2.361328,4667,6825,-12720
2.376953,4719,6958,-12676
2.392578,4772,7025,-12829
2.408203,4878,7072,-12797
2.423828,4952,7158,-12658
2.439453,5004,7224,-12712
2.455078,5052,7274,-12779
2.470703,5081,7374,-12726
2.486328,5104,7502,-12737
2.501953,5119,7602,-12797
2.517578,5129,7661,-12744
2.533203,5124,7697,-12653
2.548828,5095,7736,-12679
2.564453,5051,7774,-12724
2.580078,5010,7833,-12683
2.595703,5008,7920,-12720
2.611328,4963,7968,-12772
2.626953,4870,7991,-12687
2.642578,4858,8015,-12679
2.658203,4815,8027,-12740
2.673828,4688,8027,-12656
2.689453,4645,8031,-12651
2.705078,4642,8024,-12729
2.720703,4545,7990,-12683
2.736328,4469,7975,-12662
2.751953,4481,7956,-12699
2.767578,4438,7891,-12663
2.783203,4356,7841,-12658
2.798828,4361,7856,-12744
2.814453,4347,7854,-12753
2.830078,4254,7795,-12706
2.845703,4228,7752,-12774
2.861328,4254,7708,-12788
2.876953,4224,7624,-12676
2.892578,4219,7536,-12706
2.908203,4258,7509,-12785
2.923828,4270,7495,-12706
2.939453,4294,7449,-12708
2.955078,4308,7443,-12833
2.970703,4351,7400,-12813
2.986328,4428,7308,-12724
3.001953,4440,7263,-12760
3.017578,4467,7234,-12812
3.033203,4556,7209,-12720
3.048828,4592,7211,-12644
3.064453,4604,7229,-12753
3.080078,4710,7242,-12769
3.095703,4824,7261,-12647
3.111328,4883,7261,-12740
3.126953,4945,7263,-12837
3.142578,5040,7302,-12678
3.158203,5102,7309,-12663
3.173828,5135,7340,-12769
3.189453,5194,7429,-12656
3.205078,5226,7513,-12651
3.220703,5265,7591,-12788
3.236328,5336,7663,-12699
3.251953,5392,7708,-12642
3.267578,5477,7729,-12717
3.283203,5502,7786,-12667
3.298828,5474,7881,-12681
3.314453,5515,7965,-12762
3.330078,5494,8049,-12729
3.345703,5431,8102,-12706
3.361328,5460,8125,-12683
3.376953,5420,8157,-12654
3.392578,5317,8191,-12669
3.408203,5310,8231,-12662
3.423828,5290,8275,-12687
3.439453,5169,8311,-12708
3.455078,5106,8349,-12676
3.470703,5119,8363,-12731
3.486328,5017,8331,-12695
3.501953,4870,8313,-12603
3.517578,4879,8293,-12720
3.533203,4856,8249,-12674
3.548828,4697,8224,-12526
3.564453,4661,8231,-12728
3.580078,4678,8211,-12792
3.595703,4583,8145,-12572
3.611328,4524,8095,-12683
3.626953,4533,8049,-12847
3.642578,4499,7968,-12637
3.658203,4420,7904,-12619
3.673828,4390,7870,-12854
3.689453,4404,7822,-12742
3.705078,4372,7758,-12601
3.720703,4347,7699,-12781
3.736328,4394,7649,-12774
3.751953,4431,7613,-12619
3.767578,4445,7568,-12762
3.783203,4497,7522,-12869
3.798828,4542,7493,-12720
3.814453,4554,7438,-12733
3.830078,4583,7391,-12854
3.845703,4676,7358,-12726
3.861328,4745,7311,-12583
3.876953,4745,7297,-12695
3.892578,4829,7300,-12745
3.908203,4931,7334,-12617
3.923828,4949,7388,-12713
3.939453,5017,7411,-12867
3.955078,5124,7429,-12687
3.970703,5177,7438,-12629
3.986328,5235,7422,-12756
4.001953,5299,7470,-12619
4.017578,5320,7549,-12594
4.033203,5369,7606,-12778
4.048828,5422,7725,-12715
4.064453,5456,7833,-12644
4.080078,5517,7849,-12744
4.095703,5526,7883,-12688
4.111328,5527,7950,-12590
4.126953,5565,7999,-12697
4.142578,5536,8068,-12770
4.158203,5488,8163,-12662
4.173828,5499,8220,-12642
4.189453,5467,8227,-12742
4.205078,5345,8256,-12667
4.220703,5327,8309,-12585
4.236328,5335,8325,-12722
4.251953,5156,8332,-12713
4.267578,5094,8368,-12604
4.283203,5176,8391,-12717
4.298828,5020,8357,-12710
4.314453,4851,8347,-12549
4.330078,4901,8363,-12635
4.345703,4854,8307,-12708
4.361328,4703,8256,-12595
4.376953,4708,8259,-12658
4.392578,4711,8229,-12763
4.408203,4574,8165,-12685
4.423828,4508,8109,-12654
4.439453,4556,8052,-12694
4.455078,4513,7981,-12701
4.470703,4399,7929,-12681
4.486328,4383,7909,-12704
4.501953,4420,7866,-12762
4.517578,4408,7795,-12715
4.533203,4395,7740,-12683
4.548828,4445,7670,-12772
4.564453,4511,7599,-12753
4.580078,4485,7570,-12701
4.595703,4470,7550,-12813
4.611328,4576,7504,-12806
4.626953,4608,7450,-12704
4.642578,4590,7415,-12765
4.658203,4683,7386,-12763
4.673828,4770,7350,-12660
4.689453,4786,7340,-12685
4.705078,4860,7347,-12740
4.720703,4963,7365,-12690
4.736328,4990,7416,-12699
4.751953,5035,7440,-12783
4.767578,5152,7440,-12747
4.783203,5208,7461,-12658
4.798828,5224,7499,-12681
4.814453,5319,7550,-12667
4.830078,5394,7618,-12585
4.845703,5399,7697,-12670
4.861328,5449,7775,-12763
4.876953,5508,7847,-12670
4.892578,5535,7893,-12681
4.908203,5560,7929,-12769
4.923828,5558,7983,-12674
4.939453,5549,8045,-12619
4.955078,5520,8124,-12728
4.970703,5479,8184,-12695
4.986328,5479,8216,-12595
5.001953,5452,8265,-12679
5.017578,5347,8320,-12738
5.033203,5297,8343,-12669
5.048828,5313,8354,-12676
5.064453,5219,8384,-12735
5.080078,5117,8399,-12672
5.095703,5115,8374,-12585
5.111328,5020,8341,-12645
5.126953,4878,8340,-12662
5.142578,4847,8359,-12581
5.158203,4835,8350,-12695
5.173828,4736,8329,-12783
5.189453,4658,8295,-12628
5.205078,4674,8220,-12640
5.220703,4635,8141,-12756
5.236328,4531,8065,-12629
5.251953,4499,8018,-12615
5.267578,4511,7999,-12779
5.283203,4463,7961,-12747
5.298828,4394,7915,-12708
5.314453,4394,7861,-12735
5.330078,4413,7781,-12674
5.345703,4410,7684,-12728
5.361328,4411,7631,-12769
5.376953,4463,7624,-12710
5.392578,4520,7590,-12792
5.408203,4535,7541,-12813
5.423828,4551,7506,-12712
5.439453,4595,7458,-12751
5.455078,4644,7418,-12760
5.470703,4724,7384,-12667
5.486328,4783,7368,-12704
5.501953,4806,7383,-12753
5.517578,4885,7381,-12694
5.533203,4983,7393,-12681
5.548828,5049,7427,-12720
5.564453,5104,7445,-12729
5.580078,5161,7474,-12685
5.595703,5227,7513,-12663
5.611328,5277,7540,-12692
5.626953,5331,7584,-12663
5.642578,5395,7656,-12637
5.658203,5440,7736,-12694
5.673828,5485,7809,-12726
5.689453,5517,7858,-12670
5.705078,5538,7915,-12644
5.720703,5565,7991,-12719
5.736328,5543,8050,-12728
5.751953,5520,8107,-12645
5.767578,5549,8181,-12674
5.783203,5536,8229,-12720
5.798828,5456,8257,-12649
5.814453,5422,8309,-12633
5.830078,5406,8368,-12708
5.845703,5331,8400,-12713
5.861328,5274,8415,-12653
5.876953,5231,8434,-12667
5.892578,5151,8416,-12729
5.908203,5076,8388,-12631
5.923828,5020,8384,-12574
5.939453,4949,8375,-12717
5.955078,4835,8372,-12662
5.970703,4747,8356,-12549
5.986328,4720,8345,-12747
6.001953,4663,8304,-12753
6.017578,4633,8175,-12529
6.033203,4635,8120,-12670
6.048828,4581,8106,-12785
6.064453,4511,8015,-12610
6.080078,4469,7981,-12708
6.095703,4467,7975,-12840
6.111328,4465,7906,-12692
6.126953,4419,7834,-12697
6.142578,4429,7752,-12804
6.158203,4479,7675,-12713
6.173828,4465,7654,-12662
6.189453,4447,7624,-12781
6.205078,4503,7586,-12801
6.220703,4574,7543,-12685
6.236328,4594,7493,-12735
6.251953,4619,7465,-12842
6.267578,4692,7418,-12706
6.283203,4740,7381,-12640
6.298828,4767,7375,-12758
6.314453,4851,7363,-12710
6.330078,4924,7368,-12642
6.345703,4974,7390,-12731
6.361328,5069,7422,-12728
6.376953,5135,7466,-12663
6.392578,5186,7486,-12710
6.408203,5263,7491,-12717
6.423828,5317,7525,-12670
6.439453,5370,7602,-12690
6.455078,5395,7674,-12687
6.470703,5422,7729,-12658
6.486328,5501,7804,-12678
6.501953,5533,7879,-12701
6.517578,5529,7936,-12701
6.533203,5554,8007,-12685
6.548828,5560,8082,-12665
6.564453,5520,8138,-12670
6.580078,5508,8197,-12692
6.595703,5524,8240,-12674
6.611328,5461,8284,-12635
6.626953,5392,8343,-12674
6.642578,5399,8363,-12722
6.658203,5345,8365,-12649
6.673828,5235,8397,-12619
6.689453,5211,8424,-12704
6.705078,5147,8409,-12685
6.720703,5006,8395,-12581
6.736328,4972,8382,-12638
6.751953,4924,8372,-12710
6.767578,4813,8359,-12599
6.783203,4774,8345,-12603
6.798828,4749,8338,-12731
6.814453,4683,8290,-12669
6.830078,4594,8227,-12597
6.845703,4563,8179,-12692
6.861328,4565,8107,-12708
6.876953,4488,8063,-12667
6.892578,4442,8020,-12710
6.908203,4465,7940,-12744
6.923828,4467,7909,-12737
6.939453,4458,7847,-12710
6.955078,4435,7741,-12694
6.970703,4444,7684,-12749
6.986328,4479,7631,-12740
7.001953,4495,7599,-12699
7.017578,4529,7561,-12774
7.033203,4588,7518,-12756
7.048828,4626,7500,-12699
7.064453,4642,7475,-12767
7.080078,4704,7447,-12733
7.095703,4754,7434,-12672
7.111328,4804,7433,-12712
7.126953,4899,7411,-12681
7.142578,4963,7372,-12658
7.158203,5015,7368,-12694
7.173828,5085,7409,-12663
7.189453,5172,7454,-12678
7.205078,5222,7500,-12744
7.220703,5261,7559,-12678
7.236328,5344,7613,-12628
7.251953,5386,7647,-12715
7.267578,5408,7675,-12681
7.283203,5454,7749,-12590
7.298828,5502,7834,-12690
7.314453,5529,7899,-12762
7.330078,5529,7990,-12645
7.345703,5552,8057,-12629
7.361328,5574,8099,-12745
7.376953,5522,8161,-12710
7.392578,5483,8193,-12599
7.408203,5511,8213,-12647
7.423828,5469,8282,-12731
7.439453,5342,8354,-12649
7.455078,5338,8402,-12612
7.470703,5365,8420,-12737
7.486328,5215,8411,-12683
7.501953,5131,8420,-12585
7.517578,5161,8409,-12708
7.533203,5015,8379,-12681
7.548828,4888,8375,-12547
7.564453,4929,8372,-12644
7.580078,4822,8347,-12674
7.595703,4679,8315,-12610
7.611328,4708,8306,-12683
7.626953,4683,8281,-12687
7.642578,4558,8207,-12654
7.658203,4517,8163,-12663
7.673828,4551,8122,-12640
7.689453,4511,8065,-12738
7.705078,4431,8009,-12747
7.720703,4433,7925,-12640
7.736328,4465,7874,-12751
7.751953,4429,7813,-12733
7.767578,4413,7702,-12590
7.783203,4467,7654,-12751
7.798828,4506,7640,-12774
7.814453,4511,7583,-12615
7.830078,4520,7533,-12778
7.845703,4592,7520,-12837
7.861328,4651,7509,-12644
7.876953,4649,7463,-12722
7.892578,4736,7413,-12813
7.908203,4835,7400,-12660
7.923828,4826,7404,-12638
7.939453,4894,7390,-12737
7.955078,5026,7391,-12710
7.970703,5052,7416,-12644
7.986328,5092,7436,-12695
8.001953,5210,7468,-12765
8.017578,5290,7502,-12656
8.033203,5319,7534,-12601
8.048828,5363,7588,-12749
8.064453,5402,7658,-12681
8.080078,5413,7733,-12544
8.095703,5467,7802,-12724
8.111328,5508,7870,-12744
8.126953,5488,7954,-12587
8.142578,5543,8013,-12708
8.158203,5588,8065,-12733
8.173828,5504,8141,-12594
8.189453,5501,8197,-12703
8.205078,5540,8241,-12735
8.220703,5458,8282,-12574
8.236328,5429,8320,-12642
8.251953,5420,8382,-12724
8.267578,5310,8399,-12628
8.283203,5260,8409,-12647
8.298828,5240,8454,-12733
8.314453,5129,8447,-12678
8.330078,5042,8407,-12587
8.345703,5029,8391,-12649
8.361328,4952,8402,-12704
8.376953,4811,8386,-12562
8.392578,4779,8338,-12581
8.408203,4761,8322,-12778
8.423828,4642,8291,-12653
8.439453,4597,8234,-12547
8.455078,4611,8204,-12749
8.470703,4554,8141,-12697
8.486328,4486,8068,-12574
8.501953,4470,8040,-12770
8.517578,4485,7975,-12769
8.533203,4456,7895,-12624
8.548828,4419,7879,-12738
8.564453,4454,7829,-12772
8.580078,4492,7715,-12647
8.595703,4481,7649,-12683
8.611328,4497,7636,-12783
8.626953,4551,7608,-12763
8.642578,4567,7534,-12719
8.658203,4595,7488,-12774
8.673828,4681,7463,-12808
8.689453,4729,7436,-12676
8.705078,4728,7422,-12647
8.720703,4786,7406,-12756
8.736328,4895,7408,-12676
8.751953,4942,7413,-12608
8.767578,5002,7408,-12729
8.783203,5120,7434,-12717
8.798828,5185,7470,-12640
8.814453,5211,7493,-12720
8.830078,5274,7547,-12699
8.845703,5347,7588,-12608
8.861328,5392,7606,-12681
8.876953,5424,7675,-12679
8.892578,5485,7750,-12624
8.908203,5529,7815,-12726
8.923828,5517,7906,-12713
8.939453,5515,7979,-12633
8.955078,5565,8025,-12701
8.970703,5565,8082,-12694
8.986328,5488,8166,-12628
9.001953,5483,8240,-12678
9.017578,5510,8266,-12683
9.033203,5445,8300,-12628
9.048828,5402,8361,-12670
9.064453,5415,8397,-12697
9.080078,5338,8409,-12647
9.095703,5222,8438,-12644
9.111328,5192,8465,-12685
9.127075,5136,8450,-12676
9.142700,5019,8397,-12595
9.158325,4974,8379,-12608
9.173950,4951,8402,-12715
9.189575,4819,8366,-12624
9.205200,4713,8329,-12545
9.220825,4728,8336,-12751
9.236450,4695,8284,-12720
9.252075,4595,8199,-12540
9.267700,4581,8159,-12715
9.283325,4579,8122,-12751
9.298950,4476,8054,-12592
9.314575,4422,8013,-12722
9.330200,4460,7979,-12792
9.345825,4461,7900,-12654
9.361450,4429,7829,-12685
9.377075,4444,7775,-12758
9.392700,4494,7691,-12710
9.408325,4494,7622,-12701
9.423950,4483,7608,-12772
9.439575,4547,7590,-12792
9.455200,4610,7541,-12690
9.470825,4615,7504,-12706
9.486450,4647,7486,-12810
9.502075,4749,7450,-12692
9.517700,4794,7404,-12658
9.533325,4803,7397,-12778
9.548950,4911,7400,-12679
9.564575,5004,7400,-12647
9.580200,5022,7424,-12731
9.595825,5101,7459,-12654
9.611450,5199,7484,-12672
9.627075,5251,7509,-12731
9.642700,5302,7549,-12651
9.658325,5365,7606,-12669
9.673950,5402,7659,-12695
9.689575,5431,7699,-12628
9.705200,5479,7775,-12649
9.720825,5526,7866,-12685
9.736450,5538,7933,-12704
9.752075,5529,8013,-12713
9.767700,5551,8082,-12653
9.783325,5561,8120,-12692
9.798950,5506,8182,-12704
9.814575,5463,8252,-12597
9.830200,5474,8304,-12647
9.845825,5444,8345,-12715
9.861450,5367,8390,-12629
9.877075,5381,8431,-12672
9.892700,5365,8434,-12724
9.908325,5208,8418,-12640
9.923950,5165,8447,-12672
9.939575,5160,8461,-12649
9.955200,4983,8422,-12549
9.970825,4906,8407,-12644
9.986450,4938,8395,-12662
10.002075,4811,8370,-12581
10.017700,4706,8341,-12665
10.033325,4733,8297,-12710
10.048950,4665,8266,-12662
10.064575,4545,8215,-12635
10.080200,4536,8131,-12649
10.095825,4533,8100,-12724
10.111450,4472,8068,-12681
10.126953,4426,8009,-12638
10.142578,4449,7958,-12769
10.158203,4474,7852,-12724
10.173828,4433,7759,-12620
10.189453,4404,7738,-12769
10.205078,4444,7691,-12758
10.220703,4519,7645,-12645
10.236328,4528,7622,-12774
10.251953,4567,7568,-12779
10.267578,4661,7511,-12676
10.283203,4647,7481,-12747
10.298828,4669,7450,-12747
10.314453,4792,7427,-12669
10.330078,4813,7422,-12697
10.345703,4835,7434,-12737
10.361328,4954,7440,-12701
10.376953,4999,7411,-12665
10.392578,5060,7436,-12710
10.408203,5183,7493,-12733
10.423828,5211,7504,-12656
10.439453,5244,7525,-12647
10.455078,5338,7586,-12712
10.470703,5404,7659,-12670
10.486328,5431,7704,-12642
10.501953,5463,7729,-12687
10.517578,5522,7800,-12658
10.533203,5551,7883,-12667
10.548828,5540,7938,-12720
10.564453,5551,8031,-12679
10.580078,5574,8107,-12681
10.595703,5536,8147,-12712
10.611328,5483,8220,-12658
10.626953,5488,8268,-12640
10.642578,5465,8311,-12622
10.658203,5390,8381,-12631
10.673828,5363,8434,-12717
10.689453,5345,8466,-12645
10.705078,5274,8461,-12610
10.720703,5238,8465,-12726
10.736328,5185,8463,-12663
10.751953,5045,8429,-12572
10.767578,4997,8402,-12637
10.783203,4961,8374,-12647
10.798828,4826,8359,-12615
10.814453,4765,8361,-12613
10.830078,4751,8331,-12647
10.845703,4665,8290,-12697
10.861328,4601,8257,-12658
10.876953,4597,8202,-12624
10.892578,4554,8115,-12681
10.908203,4483,8056,-12701
10.923828,4454,8040,-12699
10.939453,4465,7993,-12713
10.955078,4458,7929,-12724
10.970703,4444,7879,-12724
10.986328,4465,7797,-12688
11.001953,4481,7725,-12703
11.017578,4478,7683,-12745
11.033203,4515,7600,-12715
11.048828,4563,7550,-12740
11.064453,4581,7550,-12790
11.080078,4619,7513,-12726
11.095703,4681,7474,-12697
11.111328,4731,7445,-12729
11.126953,4758,7429,-12685
11.142578,4835,7427,-12685
11.158203,4935,7420,-12729
11.173828,4956,7429,-12701
11.189453,5017,7429,-12683
11.205078,5119,7440,-12678
11.220703,5163,7477,-12678
11.236328,5227,7509,-12676
11.251953,5306,7558,-12615
11.267578,5351,7606,-12663
11.283203,5394,7663,-12728
11.298828,5424,7752,-12624
11.314453,5469,7802,-12647
11.330078,5542,7840,-12745
11.345703,5542,7911,-12631
11.361328,5533,7977,-12637
11.376953,5586,8050,-12763
11.392578,5567,8125,-12663
11.408203,5502,8181,-12619
11.423828,5522,8224,-12717
11.439453,5501,8284,-12670
11.455078,5395,8343,-12594
11.470703,5376,8370,-12651
11.486328,5381,8402,-12701
11.501953,5270,8440,-12642
11.517578,5206,8468,-12620
11.533203,5233,8493,-12708
11.548828,5127,8488,-12690
11.564453,4992,8443,-12574
11.580078,4999,8413,-12631
11.595703,4936,8406,-12708
11.611328,4778,8363,-12587
11.626953,4751,8316,-12572
11.642578,4761,8306,-12683
11.658203,4658,8277,-12667
11.673828,4561,8232,-12635
11.689453,4569,8168,-12669
11.705078,4558,8082,-12713
11.720703,4478,8031,-12690
11.736328,4445,8009,-12660
11.751953,4467,7966,-12708
11.767578,4456,7893,-12699
11.783203,4406,7840,-12681
11.798828,4417,7795,-12708
11.814453,4503,7724,-12713
11.830078,4499,7670,-12770
11.845703,4479,7636,-12794
11.861328,4567,7563,-12704
11.876953,4603,7508,-12701
11.892578,4613,7483,-12765
11.908203,4708,7447,-12669
11.923828,4778,7438,-12610
11.939453,4783,7445,-12765
11.955078,4829,7440,-12754
11.970703,4935,7441,-12617
11.986328,4977,7454,-12751
12.001953,5024,7452,-12795
12.017578,5167,7452,-12570
12.033203,5240,7474,-12604
12.048828,5247,7497,-12753
12.064453,5310,7565,-12619
12.080078,5363,7649,-12581
12.095703,5395,7693,-12808
12.111328,5436,7759,-12729
12.126953,5485,7831,-12495
12.142578,5538,7813,-12704
12.158203,5543,7877,-12654
12.173828,5517,8057,-12479
12.189453,5570,8109,-12995
12.205078,5565,8134,-12751
12.220703,5470,8206,-12247
12.236328,5640,8165,-13045
12.251953,5579,8195,-12810
12.267578,5236,8347,-11994
12.283203,5426,8418,-12878
12.298828,5370,8516,-13053
12.314453,4951,8629,-12328
12.330078,5183,8627,-12681
12.345703,5227,8536,-12940
12.361328,4860,8409,-12531
12.376953,5072,8368,-12320
12.392578,5231,8349,-12576
12.408203,4881,8324,-12853
12.423828,4835,8391,-12692
12.439453,4997,8420,-12537
12.455078,4767,8357,-12838
12.470703,4479,8259,-12851
12.486328,4540,8116,-12351
12.501953,4570,8041,-12570
12.517578,4354,8029,-12912
12.533203,4295,7970,-12522
12.548828,4488,7970,-12608
12.564453,4547,7970,-12860
12.580078,4410,7895,-12662
12.595703,4429,7865,-12699
12.611328,4595,7836,-12790
12.626953,4531,7781,-12828
12.642578,4419,7722,-12812
12.658203,4611,7640,-12685
12.673828,4686,7531,-12753
12.689453,4556,7431,-12662
12.705078,4669,7383,-12549
12.720703,4815,7343,-12769
12.736328,4785,7336,-12704
12.751953,4851,7402,-12640
12.767578,4995,7440,-12919
12.783203,4986,7438,-12787
12.798828,4949,7474,-12554
12.814453,5017,7483,-12747
12.830078,4997,7463,-12701
12.845703,5015,7500,-12456
12.861328,5231,7593,-12565
12.876953,5363,7702,-12715
12.892578,5383,7783,-12660
12.908203,5510,7824,-12679
12.923828,5660,7824,-12772
12.939453,5652,7833,-12728
12.955078,5568,7870,-12658
12.970703,5590,7877,-12726
12.986328,5599,7940,-12692
13.001953,5472,8043,-12542
13.017578,5420,8077,-12592
13.033203,5477,8145,-12619
13.048828,5410,8274,-12497
13.064453,5333,8384,-12647
13.080078,5386,8479,-12860
13.095703,5367,8556,-12740
13.111328,5297,8579,-12667
13.126953,5297,8549,-12767
13.142578,5233,8468,-12674
13.158203,5122,8372,-12442
13.173828,5069,8349,-12462
13.189453,5004,8363,-12613
13.205078,4899,8399,-12617
13.220703,4863,8459,-12715
13.236328,4836,8468,-12853
13.251953,4711,8382,-12738
13.267578,4654,8232,-12594
13.283203,4633,8113,-12592
13.298828,4540,8070,-12560
13.314453,4476,8091,-12569
13.330078,4463,8174,-12715
13.345703,4504,8184,-12781
13.361328,4540,8063,-12697
13.376953,4506,7943,-12703
13.392578,4497,7852,-12778
13.408203,4536,7724,-12683
13.423828,4531,7622,-12688
13.439453,4472,7609,-12838
13.455078,4486,7593,-12690
13.470703,4565,7547,-12581
13.486328,4572,7520,-12737
13.501953,4590,7511,-12678
13.517578,4686,7491,-12603
13.533203,4724,7488,-12810
13.548828,4756,7502,-12876
13.564453,4886,7483,-12726
13.580078,4947,7431,-12744
13.595703,4976,7383,-12706
13.611328,5097,7372,-12501
13.626953,5158,7402,-12547
13.642578,5179,7447,-12701
13.658203,5285,7531,-12695
13.673828,5358,7647,-12728
13.689453,5369,7681,-12819
13.705078,5420,7641,-12740
13.720703,5483,7618,-12503
13.736328,5492,7661,-12512
13.751953,5445,7790,-12722
13.767578,5435,7945,-12678
13.783203,5531,8082,-12619
13.798828,5581,8154,-12751
13.814453,5522,8161,-12713
13.830078,5488,8195,-12595
13.845703,5543,8231,-12651
13.861328,5508,8259,-12706
13.876953,5367,8336,-12690
13.892578,5361,8390,-12678
13.908203,5365,8413,-12638
13.923828,5226,8449,-12587
13.939453,5167,8457,-12608
13.955078,5163,8457,-12647
13.970703,5058,8475,-12637
13.986328,4995,8481,-12674
14.001953,4990,8500,-12722
14.017578,4910,8472,-12670
14.033203,4801,8381,-12599
14.048828,4756,8325,-12585
14.064453,4719,8275,-12578
14.080078,4620,8243,-12576
14.095703,4554,8266,-12690
14.111328,4572,8243,-12745
14.127075,4590,8157,-12674
14.142700,4560,8065,-12747
14.158325,4503,7968,-12749
14.173950,4495,7886,-12617
14.189575,4474,7840,-12706
14.205200,4411,7809,-12762
14.220825,4435,7766,-12620
14.236450,4472,7727,-12663
14.252075,4449,7688,-12808
14.267700,4497,7627,-12699
14.283325,4603,7566,-12656
14.298950,4633,7531,-12828
14.314575,4660,7491,-12770
14.330200,4751,7463,-12644
14.345825,4803,7456,-12744
14.361450,4810,7429,-12737
14.377075,4860,7420,-12601
14.392700,4942,7429,-12654
14.408325,4997,7441,-12735
14.423950,5058,7458,-12637
14.439575,5160,7483,-12635
14.455200,5220,7524,-12765
14.470825,5258,7552,-12687
14.486450,5344,7583,-12581
14.502075,5392,7633,-12679
14.517700,5394,7699,-12688
14.533325,5454,7775,-12601
14.548950,5519,7863,-12656
14.564575,5536,7927,-12715
14.580200,5547,7966,-12624
14.595825,5570,8034,-12592
14.611450,5590,8091,-12697
14.627075,5543,8152,-12728
14.642700,5494,8225,-12690
14.658325,5524,8243,-12697
14.673950,5465,8281,-12669
14.689575,5324,8350,-12576
14.705200,5340,8390,-12576
14.720825,5326,8427,-12622
14.736450,5169,8477,-12592
14.752075,5161,8541,-12662
14.767700,5169,8566,-12762
14.783325,5017,8527,-12690
14.798950,4979,8481,-12640
14.814575,5010,8416,-12631
14.830200,4890,8334,-12537
14.845825,4779,8309,-12508
14.861450,4769,8329,-12620
14.877075,4704,8341,-12713
14.892700,4594,8316,-12706
14.908325,4563,8225,-12708
14.923950,4572,8136,-12706
14.939575,4536,8059,-12603
14.955200,4467,7972,-12583
14.970825,4435,7949,-12722
14.986450,4483,7972,-12731
15.002075,4495,7938,-12679
15.017700,4451,7852,-12790
15.033325,4504,7761,-12779
15.048950,4572,7688,-12662
15.064575,4526,7624,-12735
15.080200,4517,7570,-12745
15.095825,4610,7533,-12631
15.111450,4640,7502,-12674
15.126953,4633,7506,-12740
15.142578,4740,7506,-12692
15.158203,4815,7488,-12688
15.173828,4829,7486,-12745
15.189453,4919,7477,-12767
15.205078,5010,7443,-12674
15.220703,5065,7434,-12624
15.236328,5135,7447,-12692
15.251953,5202,7465,-12617
15.267578,5229,7516,-12581
15.283203,5281,7579,-12731
15.298828,5358,7658,-12720
15.314453,5397,7718,-12638
15.330078,5424,7738,-12663
15.345703,5474,7761,-12645
15.361328,5517,7808,-12608
15.376953,5502,7904,-12612
15.392578,5517,8011,-12683
15.408203,5576,8102,-12720
15.423828,5547,8190,-12637
15.439453,5520,8225,-12644
15.455078,5549,8241,-12695
15.470703,5504,8295,-12613
15.486328,5427,8325,-12617
15.501953,5388,8359,-12729
15.517578,5340,8402,-12647
15.533203,5274,8432,-12579
15.548828,5226,8474,-12690
15.564453,5165,8479,-12644
15.580078,5079,8481,-12554
15.595703,5024,8484,-12647
15.611328,4952,8463,-12699
15.626953,4858,8440,-12635
15.642578,4833,8393,-12599
15.658203,4813,8345,-12631
15.673828,4724,8318,-12629
15.689453,4663,8291,-12560
15.705078,4642,8268,-12620
15.720703,4576,8225,-12720
15.736328,4524,8172,-12692
15.751953,4528,8118,-12694
15.767578,4526,8011,-12726
15.783203,4486,7890,-12695
15.798828,4456,7833,-12660
15.814453,4483,7800,-12633
15.830078,4483,7736,-12683
15.845703,4458,7693,-12772
15.861328,4503,7704,-12720
15.876953,4561,7683,-12710
15.892578,4570,7618,-12822
15.908203,4594,7574,-12747
15.923828,4670,7522,-12626
15.939453,4729,7479,-12715
15.955078,4742,7466,-12724
15.970703,4819,7436,-12597
15.986328,4917,7440,-12662
16.001953,4951,7483,-12790
16.017578,5033,7490,-12706
16.033203,5129,7490,-12645
16.048828,5147,7495,-12745
16.064453,5194,7490,-12665
16.080078,5274,7516,-12528
16.095703,5331,7570,-12638
16.111328,5385,7629,-12701
16.126953,5413,7724,-12606
16.142578,5456,7827,-12669
16.158203,5520,7884,-12765
16.173828,5536,7915,-12653
16.189453,5540,7959,-12576
16.205078,5574,8011,-12642
16.220703,5568,8086,-12681
16.236328,5515,8190,-12649
16.251953,5526,8259,-12662
16.267578,5560,8279,-12717
16.283203,5479,8311,-12645
16.298828,5397,8357,-12617
16.314453,5401,8395,-12717
16.330078,5313,8424,-12656
16.345703,5194,8440,-12590
16.361328,5199,8479,-12678
16.376953,5133,8507,-12660
16.392578,5011,8477,-12603
16.408203,5001,8447,-12631
16.423828,4954,8454,-12640
16.439453,4849,8450,-12617
16.455078,4803,8422,-12635
16.470703,4769,8386,-12669
16.486328,4701,8332,-12626
16.501953,4615,8268,-12626
16.517578,4590,8193,-12670
16.533203,4592,8145,-12637
16.548828,4499,8132,-12642
16.564453,4435,8068,-12704
16.580078,4469,7999,-12699
16.595703,4485,7966,-12679
16.611328,4479,7893,-12728
16.626953,4486,7822,-12703
16.642578,4511,7766,-12631
16.658203,4540,7688,-12737
16.673828,4542,7654,-12790
16.689453,4572,7647,-12692
16.705078,4622,7606,-12740
16.720703,4624,7552,-12788
16.736328,4654,7506,-12670
16.751953,4720,7458,-12653
16.767578,4778,7431,-12726
16.783203,4858,7434,-12665
16.798828,4942,7454,-12631
16.814453,4990,7477,-12747
16.830078,5042,7506,-12740
16.845703,5119,7527,-12628
16.861328,5188,7509,-12674
16.876953,5235,7527,-12704
16.892578,5313,7574,-12572
16.908203,5392,7604,-12567
16.923828,5408,7695,-12735
16.939453,5429,7788,-12726
16.955078,5492,7838,-12610
16.970703,5561,7874,-12695
16.986328,5577,7890,-12726
17.001953,5529,7943,-12574
17.017578,5543,8016,-12617
17.033203,5565,8091,-12713
17.048828,5483,8199,-12629
17.064453,5460,8297,-12617
17.080078,5520,8345,-12688
17.095703,5452,8357,-12667
17.111328,5358,8388,-12604
17.126953,5410,8440,-12660
17.142578,5351,8450,-12722
17.158203,5176,8456,-12642
17.173828,5176,8470,-12615
17.189453,5149,8452,-12653
17.205078,4961,8443,-12588
17.220703,4924,8454,-12558
17.236328,4940,8449,-12645
17.251953,4785,8434,-12670
17.267578,4701,8411,-12629
17.283203,4740,8386,-12676
17.298828,4667,8322,-12656
17.314453,4572,8231,-12562
17.330078,4606,8191,-12604
17.345703,4604,8165,-12660
17.361328,4513,8115,-12663
17.376953,4485,8082,-12737
17.392578,4511,8020,-12769
17.408203,4492,7924,-12681
17.423828,4454,7820,-12669
17.439453,4485,7715,-12722
17.455078,4520,7677,-12669
17.470703,4494,7652,-12620
17.486328,4483,7613,-12728
17.501953,4551,7622,-12778
17.517578,4638,7590,-12681
17.533203,4651,7534,-12717
17.548828,4667,7522,-12804
17.564453,4765,7490,-12674
17.580078,4826,7459,-12610
17.595703,4865,7445,-12715
17.611328,4958,7429,-12660
17.626953,5029,7459,-12574
17.642578,5086,7495,-12679
17.658203,5181,7513,-12726
17.673828,5242,7565,-12672
17.689453,5283,7593,-12695
17.705078,5351,7599,-12688
17.720703,5411,7616,-12604
17.736328,5449,7650,-12581
17.751953,5463,7738,-12653
17.767578,5485,7838,-12685
17.783203,5508,7934,-12667
17.798828,5533,8022,-12694
17.814453,5572,8059,-12665
17.830078,5567,8099,-12594
17.845703,5554,8165,-12638
17.861328,5535,8224,-12667
17.876953,5488,8284,-12606
17.892578,5474,8338,-12658
17.908203,5461,8381,-12697
17.923828,5408,8413,-12620
17.939453,5352,8441,-12635
17.955078,5267,8475,-12660
17.970703,5170,8484,-12626
17.986328,5156,8477,-12658
18.001953,5092,8479,-12640
18.017578,4960,8456,-12592
18.033203,4924,8440,-12628
18.048828,4897,8456,-12617
18.064453,4781,8425,-12569
18.080078,4710,8382,-12585
18.095703,4715,8372,-12685
18.111328,4656,8341,-12701
18.126953,4576,8259,-12610
18.142578,4606,8159,-12685
18.158203,4611,8077,-12742
18.173828,4524,8031,-12587
18.189453,4497,7995,-12628
18.205078,4506,7949,-12779
18.220703,4490,7897,-12667
18.236328,4476,7858,-12654
18.251953,4465,7797,-12804
18.267578,4508,7700,-12722
18.283203,4540,7636,-12651
18.298828,4545,7595,-12760
18.314453,4610,7549,-12756
18.330078,4644,7533,-12640
18.345703,4658,7522,-12658
18.361328,4724,7490,-12776
18.376953,4790,7472,-12728
18.392578,4831,7475,-12642
18.408203,4886,7479,-12740
18.423828,4967,7466,-12728
18.439453,5033,7456,-12594
18.455078,5110,7477,-12628
18.470703,5190,7506,-12672
18.486328,5240,7536,-12626
18.501953,5288,7602,-12676
18.517578,5358,7647,-12735
18.533203,5433,7677,-12663
18.548828,5456,7738,-12620
18.564453,5486,7766,-12660
18.580078,5524,7813,-12640
18.595703,5522,7920,-12612
18.611328,5545,8027,-12681
18.626953,5565,8115,-12710
18.642578,5556,8168,-12644
18.658203,5570,8207,-12670
18.673828,5551,8249,-12717
18.689453,5456,8290,-12610
18.705078,5408,8349,-12594
18.720703,5395,8397,-12715
18.736328,5329,8420,-12635
18.751953,5265,8463,-12556
18.767578,5231,8495,-12660
18.783203,5186,8500,-12651
18.798828,5129,8509,-12606
18.814453,5049,8499,-12660
18.830078,4963,8472,-12667
18.845703,4906,8445,-12610
18.861328,4856,8413,-12585
18.876953,4760,8388,-12624
18.892578,4670,8349,-12620
18.908203,4663,8299,-12585
18.923828,4644,8288,-12681
18.939453,4572,8274,-12715
18.955078,4545,8199,-12619
18.970703,4570,8106,-12697
18.986328,4551,8034,-12758
19.001953,4508,7961,-12644
19.017578,4513,7890,-12692
19.033203,4497,7840,-12770
19.048828,4469,7797,-12676
19.064453,4476,7752,-12653
19.080078,4501,7709,-12728
19.095703,4553,7649,-12745
19.111328,4579,7595,-12695
19.126953,4613,7565,-12692
19.142578,4697,7529,-12762
19.158203,4742,7497,-12747
19.173828,4758,7468,-12679
19.189453,4828,7458,-12704
19.205078,4885,7458,-12713
19.220703,4931,7449,-12644
19.236328,5015,7459,-12645
19.251953,5085,7490,-12704
19.267578,5138,7506,-12674
19.283203,5215,7543,-12654
19.298828,5281,7611,-12713
19.314453,5347,7636,-12694
19.330078,5408,7643,-12601
19.345703,5440,7674,-12610
19.361328,5483,7704,-12685
19.376953,5515,7795,-12662
19.392578,5529,7897,-12620
19.408203,5576,7956,-12683
19.423828,5586,8029,-12694
19.439453,5545,8088,-12606
19.455078,5540,8140,-12620
19.470703,5522,8213,-12690
19.486328,5463,8272,-12647
19.501953,5451,8324,-12603
19.517578,5438,8388,-12642
19.533203,5369,8429,-12676
19.548828,5313,8431,-12645
19.564453,5276,8432,-12608
19.580078,5208,8456,-12613
19.595703,5152,8475,-12649
19.611328,5097,8466,-12642
19.626953,5001,8454,-12610
19.642578,4935,8441,-12644
19.658203,4863,8420,-12628
19.673828,4769,8400,-12595
19.689453,4728,8374,-12628
19.705078,4670,8347,-12604
19.720703,4597,8315,-12642
19.736328,4565,8263,-12692
19.751953,4572,8202,-12628
19.767578,4578,8150,-12658
19.783203,4544,8081,-12697
19.798828,4506,8004,-12654
19.814453,4472,7959,-12701
19.830078,4463,7918,-12715
19.845703,4474,7834,-12669
19.861328,4485,7761,-12692
19.876953,4501,7740,-12710
19.892578,4528,7675,-12681
19.908203,4554,7599,-12704
19.923828,4585,7588,-12737
19.939453,4651,7565,-12690
19.955078,4694,7522,-12692
19.970703,4724,7495,-12745
19.986328,4799,7475,-12712
20.001953,4840,7463,-12660
20.017578,4895,7441,-12690
20.033203,4995,7436,-12697
20.048828,5052,7463,-12613
20.064453,5106,7493,-12629
20.080078,5181,7527,-12719
20.095703,5238,7565,-12662
20.111328,5310,7620,-12654
20.126953,5372,7674,-12701
20.142578,5395,7674,-12638
20.158203,5444,7711,-12656
20.173828,5479,7804,-12660
20.189453,5504,7863,-12617
20.205078,5552,7931,-12703
20.220703,5581,8009,-12701
20.236328,5585,8065,-12610
20.251953,5567,8134,-12667
20.267578,5531,8182,-12708
20.283203,5529,8206,-12653
20.298828,5520,8268,-12647
20.314453,5426,8336,-12653
20.330078,5347,8402,-12619
20.345703,5360,8459,-12603
20.361328,5306,8475,-12622
20.376953,5190,8506,-12647
20.392578,5169,8524,-12651
20.408203,5129,8500,-12681
20.423828,5010,8488,-12688
20.439453,4976,8465,-12592
20.455078,4945,8420,-12560
20.470703,4844,8386,-12595
20.486328,4778,8368,-12583
20.501953,4729,8374,-12619
20.517578,4679,8357,-12681
20.533203,4615,8324,-12731
20.548828,4570,8290,-12731
20.564453,4581,8181,-12637
20.580078,4542,8059,-12601
20.595703,4453,8020,-12631
20.611328,4460,7995,-12629
20.626953,4519,7968,-12658
20.642578,4497,7933,-12715
20.658203,4478,7856,-12762
20.673828,4538,7793,-12787
20.689453,4570,7722,-12726
20.705078,4567,7634,-12699
20.720703,4610,7565,-12751
20.736328,4674,7500,-12678
20.751953,4660,7484,-12597
20.767578,4640,7497,-12692
20.783203,4736,7502,-12753
20.798828,4794,7522,-12683
20.814453,4831,7522,-12701
20.830078,4944,7525,-12776
20.845703,5017,7499,-12708
20.861328,5076,7443,-12579
20.876953,5167,7449,-12604
20.892578,5249,7470,-12669
20.908203,5285,7522,-12599
20.923828,5313,7638,-12656
20.939453,5394,7731,-12770
20.955078,5436,7775,-12662
20.970703,5465,7791,-12624
20.986328,5543,7813,-12644
21.001953,5547,7872,-12553
21.017578,5520,7940,-12642
21.033203,5585,8020,-12762
21.048828,5608,8132,-12651
21.064453,5543,8225,-12615
21.080078,5517,8252,-12756
21.095703,5506,8250,-12687
21.111328,5429,8270,-12490
21.126953,5383,8334,-12619
21.142578,5367,8411,-12760
21.158203,5285,8463,-12587
21.173828,5256,8516,-12558
21.189453,5267,8550,-12740
21.205078,5172,8540,-12654
21.220703,5099,8500,-12553
21.236328,5070,8470,-12690
21.251953,4940,8436,-12631
21.267578,4836,8395,-12528
21.283203,4820,8379,-12638
21.298828,4715,8359,-12619
21.314453,4611,8332,-12537
21.330078,4645,8315,-12660
21.345703,4644,8291,-12731
21.361328,4540,8243,-12620
21.376953,4519,8188,-12660
21.392578,4556,8131,-12795
21.408203,4504,8045,-12654
21.423828,4567,7897,-12595
21.439453,4806,7659,-12826
21.455078,4879,7397,-12744
21.470703,4779,7211,-12554
21.486328,4738,7090,-12735
21.501953,4710,6970,-12767
21.517578,4601,6827,-12660
21.533203,4561,6715,-12858
21.548828,4629,6604,-12892
21.564453,4588,6429,-12687
21.580078,4513,6277,-12765
21.595703,4603,6177,-12826
21.611328,4620,6077,-12615
21.626953,4522,5997,-12619
21.642578,4567,5942,-12847
21.658203,4610,5877,-12856
21.673828,4517,5815,-12765
21.689453,4531,5727,-12856
21.705078,4626,5608,-12869
21.720703,4592,5519,-12654
21.736328,4558,5463,-12613
21.751953,4633,5433,-12753
21.767578,4635,5449,-12756
21.783203,4560,5502,-12831
21.798828,4569,5517,-12985
21.814453,4594,5474,-12892
21.830078,4538,5372,-12760
21.845703,4479,5254,-12778
21.861328,4431,5219,-12737
21.876953,4374,5227,-12695
21.892578,4333,5270,-12831
21.908203,4320,5329,-12919
21.923828,4299,5326,-12797
21.939453,4238,5283,-12808
21.955078,4165,5254,-12949
21.970703,4072,5211,-12837
21.986328,3985,5142,-12763
22.001953,3915,5119,-12938
22.017578,3819,5104,-12890
22.033203,3747,5049,-12690
22.048828,3708,5001,-12799
22.064453,3603,4942,-12924
22.080078,3510,4878,-12795
22.095703,3508,4833,-12853
22.111328,3429,4779,-13047
22.126953,3276,4713,-12940
22.142578,3242,4629,-12815
22.158203,3163,4524,-12910
22.173828,2926,4431,-12837
22.189453,2903,4379,-12690
22.205078,3001,4353,-12928
22.220703,2785,4294,-13028
22.236328,2587,4217,-12815
22.251953,2667,4162,-13036
22.267578,2630,4058,-13138
22.283203,2401,3876,-12774
22.298828,2317,3770,-12887
22.314453,2378,3717,-13070
22.330078,2267,3608,-12813
22.345703,2121,3549,-12851
22.361328,2226,3512,-13035
22.376953,2253,3438,-12928
22.392578,2089,3362,-12940
22.408203,2058,3278,-13120
22.423828,2083,3194,-13154
22.439453,2005,3058,-13011
22.455078,1896,2883,-12978
22.470703,1831,2781,-13054
22.486328,1862,2710,-12851
22.501953,1846,2635,-12779
22.517578,1740,2599,-13086
22.533203,1814,2574,-13028
22.548828,1914,2538,-12945
22.564453,1769,2476,-13279
22.580078,1742,2392,-13229
22.595703,1880,2290,-12976
22.611328,1758,2172,-13129
22.626953,1637,2078,-13085
22.642578,1792,1969,-12813
22.658203,1776,1883,-12890
22.673828,1624,1889,-13008
22.689453,1767,1897,-12965
22.705078,1860,1874,-13081
22.720703,1728,1853,-13281
22.736328,1801,1817,-13260
22.751953,1897,1723,-13111
22.767578,1735,1596,-13099
22.783203,1669,1514,-13040
22.798828,1758,1473,-12808
22.814453,1719,1440,-12829
22.830078,1673,1462,-13038
22.845703,1805,1531,-13015
22.861328,1899,1551,-13097
22.876953,1872,1540,-13379
22.892578,1924,1483,-13285
22.908203,1992,1349,-13019
22.923828,1930,1224,-13035
22.939453,1851,1153,-12988
22.955078,1803,1151,-12840
22.970703,1749,1203,-12945
22.986328,1740,1273,-13095
23.001953,1787,1362,-13138
23.017578,1840,1392,-13201
23.033203,1883,1333,-13170
23.048828,1956,1244,-13054
23.064453,2031,1153,-13031
23.080078,1992,1140,-13040
23.095703,1921,1182,-13070
23.111328,1933,1199,-13145
23.126953,1919,1239,-13126
23.142578,1837,1221,-13070
23.158203,1774,1144,-13033
23.173828,1781,1121,-12965
23.189453,1817,1110,-12979
23.205078,1821,1133,-13028
23.220703,1835,1205,-13108
23.236328,1883,1249,-13211
23.251953,1880,1276,-13131
23.267578,1864,1244,-13092
23.283203,1889,1167,-13183
23.298828,1830,1157,-13001
23.314453,1726,1157,-12940
23.330078,1731,1126,-13190
23.345703,1714,1142,-13054
23.361328,1658,1173,-12920
23.376953,1706,1151,-13179
23.392578,1710,1142,-13124
23.408203,1655,1167,-12928
23.423828,1703,1180,-13088
23.439453,1721,1207,-13211
23.455078,1648,1256,-13104
23.470703,1615,1260,-13058
23.486328,1612,1217,-13174
23.501953,1555,1174,-13169
23.517578,1489,1114,-12928
23.533203,1521,1051,-12956
23.548828,1533,1065,-13183
23.564453,1423,1140,-13029
23.580078,1453,1194,-12986
23.595703,1551,1205,-13269
23.611328,1428,1196,-13172
23.626953,1373,1187,-13006
23.642578,1485,1149,-13185
23.658203,1376,1099,-13153
23.673828,1239,1112,-12988
23.689453,1339,1126,-13081
23.705078,1290,1105,-13111
23.720703,1162,1103,-13024
23.736328,1296,1085,-13047
23.751953,1328,1065,-13133
23.767578,1210,1083,-13144
23.783203,1298,1101,-13110
23.798828,1308,1115,-13181
23.814453,1108,1130,-13208
23.830078,1089,1105,-13065
23.845703,1149,1060,-13029
23.861328,1007,1046,-13078
23.876953,957,1021,-13026
23.892578,1126,987,-13020
23.908203,1099,1026,-13117
23.923828,990,1071,-13172
23.939453,1123,1065,-13170
23.955078,1133,1062,-13174
23.970703,958,1037,-13158
23.986328,990,994,-13097
24.001953,1026,973,-13061
24.017578,837,960,-13054
24.033203,789,962,-13054
24.048828,926,958,-13086
24.064453,912,944,-13117
24.080078,844,1007,-13144
24.095703,890,1065,-13203
24.111328,899,1010,-13199
24.126953,917,917,-13083
24.142578,1005,880,-13086
24.158203,887,919,-13188
24.173828,698,942,-13103
24.189453,767,905,-13017
24.205078,846,865,-13135
24.220703,773,857,-13133
24.236328,751,921,-13020
24.251953,728,996,-13161
24.267578,639,965,-13270
24.283203,728,878,-13063
24.298828,915,810,-13024
24.314453,867,819,-13204
24.330078,698,901,-13136
24.345703,690,928,-13033
24.361328,757,855,-13161
24.376953,767,792,-13163
24.392578,755,826,-13024
24.408203,660,932,-13140
24.423828,512,973,-13256
24.439453,592,903,-13097
24.455078,796,839,-13056
24.470703,774,830,-13197
24.486328,660,867,-13163
24.501953,689,876,-13061
24.517578,737,821,-13124
24.533203,737,783,-13167
24.548828,757,790,-13056
24.564453,708,860,-13078
24.580078,548,978,-13254
24.595703,437,1062,-13170
24.611328,414,1083,-13056
24.626953,344,1094,-13213
24.642578,287,1073,-13136
24.658203,319,1040,-12954
24.673828,326,1033,-13135
24.689453,305,1015,-13154
24.705078,403,1005,-13003
24.720703,535,1007,-13183
24.736328,516,1012,-13269
24.751953,491,1014,-13111
24.767578,549,1010,-13131
24.783203,480,1010,-13158
24.798828,366,1005,-13085
24.814453,383,992,-13072
24.830078,364,998,-13054
24.845703,346,1014,-13110
24.861328,451,1024,-13163
24.876953,489,1015,-13165
24.892578,474,992,-13176
24.908203,503,992,-13081
24.923828,494,1005,-13153
24.939453,444,1014,-13194
24.955078,421,1032,-12967
24.970703,442,1048,-13151
24.986328,405,1032,-13295
25.001953,348,1008,-12960
25.017578,441,982,-13115
25.033203,453,955,-13295
25.048828,362,967,-12972
25.064453,483,1003,-13085
25.080078,521,1042,-13290
25.095703,374,1046,-13092
25.111328,437,1028,-13110
25.126953,499,1019,-13179
25.142578,383,973,-13079
25.158203,430,957,-13067
25.173828,494,994,-13070
25.189453,376,1024,-13167
25.205078,394,1037,-13247
25.220703,473,1024,-13131
25.236328,410,983,-13176
25.251953,398,935,-13197
25.267578,478,919,-12951
25.283203,474,942,-13036
25.298828,416,1003,-13228
25.314453,448,1083,-13060
25.330078,480,1105,-13188
25.345703,448,1055,-13369
25.361328,414,1005,-12958
25.376953,410,914,-12831
25.392578,437,874,-13203
25.408203,391,1019,-13085
25.423828,376,1165,-12960
25.439453,489,1237,-13386
25.455078,446,1201,-13335
25.470703,441,1028,-12969
25.486328,591,932,-13128
25.501953,487,940,-13195
25.517578,392,985,-12960
25.533203,494,1107,-13095
25.548828,421,1182,-13440
25.564453,314,1092,-13249
25.580078,414,958,-12944
25.595703,466,849,-13086
25.611328,373,783,-12951
25.626953,435,896,-12787
25.642578,535,1108,-13245
25.658203,387,1221,-13422
25.673828,357,1231,-13135
25.689453,471,1169,-13119
25.705078,341,1046,-13135
25.720703,333,962,-13051
25.736328,539,1003,-13206
25.751953,476,1073,-13229
25.767578,451,1083,-13085
25.783203,592,1030,-13095
25.798828,533,903,-13070
25.814453,514,923,-13185
25.830078,594,1196,-13511
25.845703,517,1396,-13497
25.861328,367,1312,-13133
25.876953,241,1069,-12895
25.892578,208,817,-12781
25.908203,182,723,-12683
25.923828,199,855,-12799
25.939453,482,1015,-13147
25.955078,548,1092,-13417
25.970703,560,1240,-13786
25.986328,1076,1201,-13544
26.001953,994,640,-12494
26.017578,221,573,-12726
26.033203,144,1296,-13322
26.048828,262,1578,-13138
26.064453,49,1317,-13361
26.080078,303,1071,-13310
26.095703,835,898,-13056
26.111328,878,821,-13195
26.126953,644,914,-13224
26.142578,523,1042,-13147
26.158203,267,1074,-13076
26.173828,137,1015,-13006
26.189453,339,905,-12931
26.205078,517,835,-12954
26.220703,607,774,-13070
26.236328,621,740,-13070
26.251953,521,885,-13122
26.267578,357,1046,-13208
26.283203,292,1078,-13145
26.298828,362,1124,-13170
26.314453,433,1117,-13272
26.330078,426,1055,-13233
26.345703,482,1099,-13176
26.361328,558,1046,-13110
26.376953,432,864,-12978
26.392578,619,1035,-13024
26.408203,730,1249,-13185
26.423828,346,1110,-13126
26.439453,366,1030,-13120
26.455078,503,1065,-13378
26.470703,412,1132,-13354
26.486328,407,1158,-13085
26.501953,332,1026,-13022
26.517578,301,919,-13008
26.533203,444,964,-12986
26.548828,512,1014,-13119
26.564453,373,1040,-13253
26.580078,253,1124,-13165
26.595703,364,1135,-13092
26.611328,389,1065,-13222
26.626953,373,1049,-13254
26.642578,483,1030,-13115
26.658203,487,937,-13074
26.673828,442,883,-13076
26.689453,380,930,-12986
26.705078,339,967,-12938
26.720703,323,953,-12997
26.736328,267,939,-13086
; 26 stopping logging: shutdown: switched off
