;Title, http://www.gcdataconcepts.com, x2-2,Kionix KXRB5-2050
;Version, 1102, Build date, Oct  6 2015,  SN:CCDC10023F56AE8
;Start_time, 2007-01-05, 22:31:48.790
;Temperature, -999.00, deg C,  Vbat, 4154, mv
;Gain, high
;SampleRate, 64,Hz
;Deadband, 0, counts
;DeadbandTimeout, 0,sec
;Headers, time,Ax,Ay,Az
0.389374,-624,-12081,-7623
0.404999,1915,-3213,-5009
0.420624,-704,5217,-10165
0.436249,-2286,2324,-12231
0.451874,689,1483,-11092
0.467499,185,1328,-12938
0.483124,-740,1651,-13438
0.514374,-322,657,-12694
0.529999,-275,498,-13376
0.545624,-342,715,-13245
0.561249,-308,598,-12910
0.576874,-288,742,-13256
0.592499,-315,837,-13276
0.608124,-363,694,-12920
0.623749,-365,721,-13245
0.639374,-320,742,-13276
0.654999,-375,419,-12940
0.670624,-336,476,-13285
0.686249,-340,358,-13228
0.701874,-342,146,-12981
0.717499,-325,144,-13260
0.733124,-338,114,-13244
0.748749,-343,-118,-12990
0.764374,-347,-31,-13249
0.779999,-377,-68,-13217
0.795624,-404,-131,-13028
0.811249,-397,-15,-13211
0.826874,-377,94,-13219
0.842499,-388,98,-13019
0.858124,-374,298,-13224
0.873749,-350,446,-13188
0.889374,-365,428,-13040
0.904999,-322,582,-13253
0.920624,-315,558,-13190
0.936249,-306,546,-13045
0.951874,-322,512,-13215
0.967499,-340,487,-13235
0.983124,-375,285,-13028
0.998749,-377,305,-13238
1.014374,-383,230,-13190
1.029999,-390,98,-13040
1.045624,-358,114,-13222
1.061249,-359,114,-13213
1.076874,-368,49,-13038
1.092499,-361,89,-13199
1.108124,-352,153,-13219
1.123749,-368,89,-13067
1.139252,-354,233,-13222
1.154877,-359,257,-13170
1.170502,-368,285,-13085
1.186127,-367,387,-13219
1.201752,-374,449,-13165
1.217377,-386,412,-13079
1.233002,-342,494,-13249
1.248627,-327,444,-13136
1.264252,-338,374,-13070
1.279877,-308,392,-13231
1.295502,-338,308,-13161
1.311127,-377,205,-13081
1.326752,-365,182,-13219
1.342377,-384,144,-13179
1.358002,-422,46,-13085
1.373627,-381,110,-13210
1.389252,-375,98,-13169
1.404877,-375,124,-13106
1.420502,-345,189,-13188
1.436127,-331,276,-13190
1.451752,-333,283,-13092
1.467377,-338,351,-13181
1.483002,-352,391,-13195
1.498627,-349,380,-13131
1.514252,-365,405,-13147
1.529877,-379,387,-13188
1.545502,-356,337,-13153
1.561127,-368,310,-13142
1.576752,-356,339,-13170
1.592377,-358,241,-13135
1.608002,-363,244,-13172
1.623627,-349,223,-13145
1.639252,-345,185,-13142
1.654877,-361,157,-13165
1.670502,-352,160,-13138
1.686127,-336,144,-13142
1.701752,-370,174,-13201
1.717377,-386,203,-13126
1.733002,-352,212,-13138
1.748627,-350,278,-13229
1.764252,-370,307,-13140
1.779877,-334,349,-13124
1.795502,-320,385,-13194
1.811127,-336,403,-13133
1.826752,-349,360,-13117
1.842377,-358,362,-13201
1.858002,-374,294,-13140
1.873627,-374,280,-13151
1.889252,-377,244,-13179
1.904877,-384,171,-13151
1.920502,-365,151,-13144
1.936127,-358,167,-13154
1.951752,-374,187,-13160
1.967377,-367,189,-13151
1.983002,-343,242,-13153
1.998627,-372,260,-13151
2.014252,-375,285,-13136
2.029877,-354,287,-13128
2.045502,-349,294,-13170
2.061127,-358,312,-13160
2.076752,-372,319,-13131
2.092377,-368,305,-13161
2.108002,-359,328,-13176
2.123627,-368,308,-13126
2.139374,-354,301,-13142
2.154999,-318,296,-13169
2.170624,-311,260,-13158
2.186249,-342,249,-13145
2.201874,-368,239,-13170
2.217499,-367,233,-13158
2.233124,-375,191,-13120
2.248749,-388,210,-13178
2.264374,-390,207,-13158
2.279999,-368,194,-13126
2.295624,-358,224,-13179
2.311249,-356,273,-13172
2.326874,-350,282,-13119
2.342499,-356,332,-13174
2.358124,-359,355,-13174
2.373749,-370,321,-13129
2.389374,-377,332,-13167
2.404999,-358,319,-13156
2.420624,-345,289,-13149
2.436249,-374,276,-13163
2.451874,-375,248,-13136
2.467499,-352,223,-13161
2.483124,-347,237,-13170
2.498749,-363,212,-13124
2.514374,-365,242,-13176
2.529999,-345,255,-13181
2.545624,-338,233,-13131
2.561249,-359,251,-13151
2.576874,-365,282,-13172
2.592499,-365,271,-13135
2.608124,-370,271,-13140
2.623749,-363,287,-13178
2.639374,-358,294,-13170
2.654999,-347,292,-13131
2.670624,-356,283,-13158
2.686249,-349,317,-13178
2.701874,-347,296,-13119
2.717499,-361,296,-13160
2.733124,-356,278,-13158
2.748749,-354,249,-13111
2.764374,-374,260,-13174
2.779999,-379,257,-13183
2.795624,-359,208,-13124
2.811249,-354,224,-13183
2.826874,-365,244,-13160
2.842499,-368,228,-13117
2.858124,-367,266,-13204
2.873749,-363,278,-13163
2.889374,-358,289,-13119
2.904999,-350,298,-13199
2.920624,-343,289,-13169
2.936249,-347,283,-13128
2.951874,-347,314,-13188
2.967499,-363,282,-13138
2.983124,-374,267,-13142
2.998749,-367,276,-13181
3.014374,-370,253,-13128
3.029999,-359,235,-13158
3.045624,-352,242,-13188
3.061249,-374,239,-13120
3.076874,-374,239,-13165
3.092499,-354,266,-13174
3.108124,-365,248,-13104
3.123749,-356,267,-13176
3.139252,-358,274,-13170
3.154877,-358,262,-13111
3.170502,-361,271,-13185
3.186127,-392,289,-13190
3.201752,-381,262,-13085
3.217377,-354,287,-13151
3.233002,-354,307,-13192
3.248627,-354,276,-13108
3.264252,-359,287,-13149
3.279877,-349,278,-13197
3.295502,-334,251,-13126
3.311127,-352,244,-13144
3.326752,-356,264,-13185
3.342377,-352,241,-13124
3.358002,-358,266,-13161
3.373627,-381,257,-13170
3.389252,-397,241,-13126
3.404877,-367,273,-13174
3.420502,-338,280,-13169
3.436127,-354,276,-13120
3.451752,-363,307,-13161
3.467377,-342,291,-13135
3.483002,-347,258,-13140
3.498627,-356,296,-13183
3.514252,-356,278,-13122
3.529877,-350,271,-13156
3.545502,-358,271,-13181
3.561127,-367,258,-13126
3.576752,-368,266,-13163
3.592377,-368,276,-13178
3.608002,-379,228,-13119
3.623627,-367,253,-13185
3.639252,-345,273,-13163
3.654877,-354,232,-13129
3.670502,-354,267,-13220
3.686127,-358,276,-13160
3.701752,-361,267,-13101
3.717377,-358,280,-13181
3.733002,-358,278,-13161
3.748627,-370,251,-13101
3.764252,-372,287,-13178
3.779877,-359,294,-13170
3.795502,-361,285,-13131
3.811127,-372,278,-13160
3.826752,-367,269,-13151
3.842377,-354,276,-13131
3.858002,-356,280,-13169
3.873627,-367,266,-13163
3.889252,-377,246,-13124
3.904877,-368,273,-13181
3.920502,-356,266,-13185
3.936127,-365,237,-13128
3.951752,-368,308,-13170
3.967377,-359,421,-13172
3.983002,-363,373,-13122
3.998627,-356,348,-13211
4.014252,-361,321,-13172
4.029877,-363,260,-13106
4.045502,-329,278,-13204
4.061127,-329,260,-13158
4.076752,-356,223,-13086
4.092377,-375,239,-13185
4.108002,-367,260,-13169
4.123627,-356,239,-13097
4.139374,-370,328,-13199
4.154999,-374,369,-13185
4.170624,-354,337,-13135
4.186249,-354,344,-13186
4.201874,-368,317,-13147
4.217499,-370,323,-13135
4.233124,-365,328,-13185
4.248749,-356,314,-13140
4.264374,-359,423,-13124
4.279999,-350,501,-13197
4.295624,-333,364,-13154
4.311249,-359,257,-13092
4.326874,-379,201,-13176
4.342499,-349,73,-13179
4.358124,-343,132,-13113
4.373749,-347,382,-13192
4.389374,-340,335,-13185
4.404999,-343,160,-13092
4.420624,-334,285,-13210
4.436249,-359,357,-13219
4.451874,-390,153,-13072
4.467499,-367,44,-13188
4.483124,-340,101,-13194
4.498749,-345,217,-13085
4.514374,-350,203,-13204
4.529999,-325,189,-13179
4.545624,-329,285,-13094
4.561249,-359,164,-13204
4.576874,-367,-9,-13190
4.592499,-345,83,-13103
4.608124,-354,276,-13197
4.623749,-356,166,-13170
4.639374,-338,153,-13113
4.654999,-324,155,-13195
4.670624,-313,-95,-13179
4.686249,-322,-72,-13135
4.701874,-333,71,-13176
4.717499,-329,141,-13163
4.733124,-308,205,-13145
4.748749,-317,26,-13176
4.764374,-325,-108,-13161
4.779999,-336,57,-13161
4.795624,-317,87,-13170
4.811249,-308,99,-13153
4.826874,-286,-9,-13144
4.842499,-283,-234,-13169
4.858124,-306,-149,-13172
4.873749,-274,19,-13144
4.889374,-281,87,-13167
4.904999,-258,-93,-13178
4.920624,-252,-284,-13135
4.936249,-283,-156,-13142
4.951874,-284,-8,-13163
4.967499,-263,7,-13147
4.983124,-238,-138,-13160
4.998749,-245,-325,-13167
5.014374,-242,-265,-13136
5.029999,-217,-86,-13169
5.045624,-197,-24,-13172
5.061249,-195,-209,-13124
5.076874,-195,-342,-13161
5.092499,-202,-181,-13167
5.108124,-179,-83,-13151
5.123749,-190,-102,-13165
5.139252,-181,-263,-13142
5.154877,-158,-384,-13165
5.170502,-152,-252,-13190
5.186127,-120,-72,-13163
5.201752,-125,-117,-13165
5.217377,-108,-363,-13169
5.233002,-106,-331,-13176
5.248627,-104,-122,-13179
5.264252,-88,-100,-13138
5.279877,-52,-272,-13151
5.295502,-49,-431,-13178
5.311127,-49,-334,-13147
5.326752,-27,-129,-13160
5.342377,-34,-183,-13167
5.358002,8,-383,-13133
5.373627,3,-306,-13154
5.389252,14,-125,-13160
5.404877,49,-184,-13153
5.420502,67,-431,-13190
5.436127,64,-479,-13167
5.451752,58,-202,-13144
5.467377,85,-154,-13174
5.483002,91,-392,-13156
5.498627,123,-392,-13145
5.514252,119,-186,-13170
5.529877,162,-195,-13156
5.545502,198,-458,-13163
5.561127,157,-497,-13183
5.576752,203,-213,-13151
5.592377,228,-188,-13160
5.608002,212,-475,-13186
5.623627,224,-474,-13161
5.639252,246,-199,-13174
5.654877,269,-204,-13188
5.670502,287,-443,-13163
5.686127,253,-479,-13176
5.701752,258,-234,-13161
5.717377,314,-159,-13135
5.733002,292,-400,-13167
5.748627,291,-417,-13176
5.764252,335,-149,-13140
5.779877,389,-118,-13145
5.795502,403,-377,-13181
5.811127,374,-447,-13163
5.826752,398,-199,-13133
5.842377,439,-95,-13158
5.858002,405,-338,-13158
5.873627,382,-379,-13135
5.889252,423,-108,-13167
5.904877,453,-61,-13174
5.920502,466,-259,-13153
5.936127,449,-361,-13172
5.951752,460,-154,-13176
5.967377,501,8,-13151
5.983002,498,-220,-13161
5.998627,483,-297,-13183
6.014252,492,-33,-13165
6.029877,503,23,-13131
6.045502,512,-209,-13165
6.061127,499,-334,-13228
6.076752,507,-52,-13136
6.092377,542,76,-13119
6.108002,542,-193,-13220
6.123627,549,-165,-13154
6.139252,558,98,-13108
6.154877,576,58,-13176
6.170502,591,-204,-13172
6.186127,574,-220,-13165
6.201752,578,58,-13176
6.217377,571,132,-13140
6.233002,567,-159,-13174
6.248627,574,-152,-13183
6.264252,567,164,-13149
6.279877,599,128,-13179
6.295502,601,-97,-13165
6.311127,569,-134,-13170
6.326752,571,74,-13190
6.342377,578,258,-13124
6.358002,578,69,-13169
6.373627,583,-83,-13236
6.389252,548,192,-13124
6.404877,558,312,-13136
6.420502,580,139,-13186
6.436127,567,-4,-13174
6.451752,571,46,-13169
6.467377,569,308,-13129
6.483002,576,323,-13147
6.498627,551,67,-13190
6.514252,566,82,-13170
6.529877,532,373,-13120
6.545502,557,378,-13195
6.561127,560,249,-13161
6.576752,508,132,-13179
6.592377,539,146,-13206
6.608002,487,407,-13119
6.623627,530,405,-13169
6.639252,530,235,-13154
6.654877,519,224,-13172
6.670502,532,391,-13170
6.686127,507,474,-13138
6.701752,512,339,-13153
6.717377,474,171,-13174
6.733002,482,219,-13179
6.748627,444,492,-13138
6.764252,464,517,-13165
6.779877,462,310,-13169
6.795502,466,287,-13203
6.811127,458,453,-13142
6.826752,387,566,-13144
6.842377,464,455,-13208
6.858002,408,282,-13103
6.873627,399,303,-13186
6.889252,426,498,-13186
6.904877,333,605,-13070
6.920502,389,403,-13190
6.936127,382,248,-13197
6.951752,316,417,-13115
6.967377,360,573,-13169
6.983002,376,587,-13170
6.998627,323,441,-13128
7.014252,308,296,-13167
7.029877,305,399,-13160
7.045502,283,546,-13153
7.061127,303,614,-13170
7.076752,257,485,-13128
7.092377,224,337,-13179
7.108002,257,491,-13174
7.123627,219,615,-13103
7.139374,255,619,-13178
7.154999,246,544,-13156
7.170624,178,376,-13131
7.186249,208,401,-13192
7.201874,160,533,-13156
7.217499,162,653,-13128
7.233124,180,639,-13136
7.248749,132,407,-13169
7.264374,139,408,-13170
7.279999,126,608,-13147
7.295624,132,655,-13172
7.311249,141,637,-13163
7.326874,101,508,-13133
7.342499,91,401,-13156
7.358124,105,492,-13185
7.373749,83,587,-13144
7.389374,55,657,-13151
7.404999,85,551,-13195
7.420624,53,374,-13136
7.436249,14,523,-13165
7.451874,55,637,-13194
7.467499,1,607,-13111
7.483124,24,592,-13194
7.498749,49,398,-13172
7.514374,-59,355,-13090
7.529999,-2,569,-13203
7.545624,21,673,-13165
7.561249,-54,607,-13115
7.576874,-43,428,-13183
7.592499,-56,437,-13154
7.608124,-63,571,-13131
7.623749,-74,601,-13151
7.639374,-67,583,-13160
7.654999,-88,366,-13129
7.670624,-125,289,-13145
7.686249,-113,480,-13170
7.701874,-149,573,-13156
7.717499,-124,564,-13178
7.733124,-129,335,-13138
7.748749,-170,260,-13163
7.764374,-143,466,-13185
7.779999,-175,501,-13136
7.795624,-179,524,-13183
7.811249,-170,432,-13172
7.826874,-218,214,-13113
7.842499,-231,301,-13158
7.858124,-215,455,-13190
7.873749,-213,508,-13142
7.889374,-215,480,-13144
7.904999,-213,248,-13186
7.920624,-215,232,-13151
7.936249,-234,430,-13140
7.951874,-250,457,-13203
7.967499,-254,469,-13158
7.983124,-263,353,-13117
7.998749,-268,176,-13174
8.014374,-281,266,-13151
8.029999,-283,374,-13140
8.045624,-258,462,-13195
8.061249,-265,419,-13156
8.076874,-295,157,-13131
8.092499,-290,169,-13161
8.108124,-283,373,-13160
8.123749,-286,403,-13163
8.139252,-288,394,-13153
8.154877,-297,248,-13140
8.170502,-304,98,-13176
8.186127,-308,196,-13156
8.201752,-304,303,-13120
8.217377,-293,417,-13192
8.233002,-300,249,-13161
8.248627,-317,62,-13128
8.264252,-309,239,-13185
8.279877,-302,298,-13158
8.295502,-302,278,-13138
8.311127,-300,194,-13165
8.326752,-329,0,-13153
8.342377,-350,64,-13138
8.358002,-342,249,-13156
8.373627,-342,274,-13158
8.389252,-336,85,-13128
8.404877,-308,-34,-13144
8.420502,-297,107,-13181
8.436127,-290,207,-13144
8.451752,-295,141,-13140
8.467377,-299,-117,-13174
8.483002,-317,-170,-13169
8.498627,-315,51,-13135
8.514252,-299,162,-13153
8.529877,-311,0,-13181
8.545502,-293,-208,-13142
8.561127,-295,-61,-13138
8.576752,-293,117,-13172
8.592377,-297,98,-13156
8.608002,-286,-118,-13129
8.623627,-275,-250,-13151
8.639252,-297,-74,-13176
8.654877,-267,74,-13144
8.670502,-243,-24,-13147
8.686127,-281,-218,-13201
8.701752,-281,-190,-13151
8.717377,-242,-27,-13131
8.733002,-250,30,-13203
8.748627,-218,-122,-13124
8.764252,-150,-313,-13101
8.779877,-197,-233,-13217
8.795502,-200,-42,-13151
8.811127,-165,-54,-13111
8.826752,-202,-272,-13199
8.842377,-195,-295,-13149
8.858002,-186,-97,-13119
8.873627,-188,-56,-13192
8.889252,-167,-206,-13160
8.904877,-129,-359,-13128
8.920502,-138,-281,-13183
8.936127,-129,-84,-13167
8.951752,-79,-145,-13135
8.967377,-97,-343,-13178
8.983002,-95,-283,-13170
8.998627,-68,-99,-13138
9.014252,-49,-140,-13165
9.029877,-50,-390,-13181
9.045502,-31,-461,-13149
9.061127,-22,-222,-13156
9.076752,-11,-138,-13153
9.092377,57,-343,-13138
9.108002,19,-347,-13186
9.123627,35,-131,-13170
9.139252,98,-159,-13144
9.154877,66,-433,-13181
9.170502,80,-470,-13169
9.186127,110,-202,-13172
9.201752,114,-211,-13185
9.217377,96,-492,-13142
9.233002,107,-424,-13165
9.248627,146,-158,-13181
9.264252,180,-225,-13138
9.279877,185,-497,-13192
9.295502,164,-447,-13190
9.311127,249,-174,-13126
9.326752,266,-284,-13185
9.342377,196,-518,-13197
9.358002,257,-333,-13129
9.373627,292,-138,-13163
9.389252,266,-320,-13185
9.404877,278,-527,-13144
9.420502,283,-370,-13174
9.436127,299,-129,-13181
9.451752,335,-277,-13133
9.467377,298,-443,-13158
9.483002,319,-224,-13194
9.498627,374,-92,-13154
9.514252,374,-270,-13131
9.529877,369,-445,-13195
9.545502,374,-329,-13188
9.561127,414,-100,-13119
9.576752,408,-231,-13165
9.592377,382,-381,-13194
9.608002,414,-175,-13142
9.623627,437,-38,-13147
9.639252,442,-211,-13165
9.654877,458,-399,-13170
9.670502,464,-233,-13161
9.686127,487,19,-13145
9.701752,512,-129,-13169
9.717377,514,-311,-13183
9.733002,528,-115,-13144
9.748627,553,41,-13156
9.764252,535,-174,-13174
9.779877,512,-342,-13154
9.795502,507,-129,-13185
9.811127,514,92,-13165
9.826752,519,-129,-13142
9.842377,524,-297,-13188
9.858002,549,-20,-13158
9.873627,566,141,-13128
9.889252,582,-74,-13181
9.904877,591,-245,-13178
9.920502,596,-70,-13156
9.936127,607,157,-13167
9.951752,583,39,-13156
9.967377,576,-154,-13178
9.983002,576,49,-13167
9.998627,576,249,-13135
10.014252,591,101,-13170
10.029877,601,-77,-13186
10.045502,612,73,-13161
10.061127,623,310,-13176
10.076752,624,148,-13158
10.092377,626,12,-13156
10.108002,615,274,-13161
10.123627,580,401,-13129
10.139252,598,144,-13181
10.154877,608,91,-13192
10.170502,589,349,-13147
10.186127,596,360,-13156
10.201752,648,160,-13203
10.217377,640,348,-13140
10.233002,615,494,-13126
10.248627,667,187,-13194
10.264252,635,249,-13163
10.279877,612,521,-13144
10.295502,624,360,-13167
10.311127,628,330,-13194
10.326752,594,555,-13115
10.342377,580,348,-13156
10.358002,642,273,-13231
10.373627,571,569,-13103
10.389252,578,416,-13169
10.404877,640,399,-13208
10.420502,553,589,-13113
10.436127,587,385,-13197
10.451752,558,453,-13151
10.467377,464,601,-13117
10.483002,571,499,-13213
10.498627,533,615,-13128
10.514252,483,583,-13156
10.529877,555,508,-13211
10.545502,491,642,-13128
10.561127,498,658,-13178
10.576752,501,639,-13192
10.592377,462,580,-13138
10.608002,455,553,-13140
10.623627,417,614,-13181
10.639252,449,660,-13178
10.654877,392,610,-13115
10.670502,374,551,-13197
10.686127,408,639,-13169
10.701752,332,694,-13110
10.717377,380,646,-13186
10.733002,351,542,-13136
10.748627,314,560,-13165
10.764252,355,578,-13170
10.779877,312,537,-13160
10.795502,324,499,-13197
10.811127,282,444,-13122
10.826752,269,542,-13172
10.842377,269,505,-13161
10.858002,223,396,-13110
10.873627,223,487,-13176
10.889252,178,517,-13160
10.904877,208,403,-13133
10.920502,233,332,-13154
10.936127,194,387,-13178
10.951752,210,355,-13169
10.967377,214,233,-13163
10.983002,189,205,-13190
10.998627,178,260,-13195
11.014252,189,208,-13161
11.029877,189,112,-13167
11.045502,196,130,-13176
11.061127,226,126,-13161
11.076752,228,48,-13178
11.092377,228,23,-13144
11.108002,249,48,-13136
11.123627,294,-31,-13186
11.139374,298,-99,-13147
11.154999,305,-88,-13140
11.170624,369,-108,-13192
11.186249,401,-154,-13156
11.201874,408,-125,-13133
11.217499,423,-152,-13163
11.233124,471,-277,-13156
11.248749,516,-209,-13176
11.264374,571,-163,-13199
11.279999,633,-265,-13151
11.295624,660,-275,-13158
11.311249,683,-300,-13176
11.326874,737,-354,-13156
11.342499,773,-292,-13188
11.358124,778,-274,-13165
11.373749,828,-350,-13113
11.389374,864,-299,-13158
11.404999,921,-258,-13163
11.420624,982,-320,-13120
11.436249,983,-281,-13183
11.451874,1024,-256,-13199
11.467499,1085,-259,-13154
11.483124,1108,-192,-13186
11.498749,1148,-183,-13174
11.514374,1196,-227,-13156
11.529999,1214,-183,-13178
11.545624,1255,-170,-13165
11.561249,1283,-209,-13178
11.576874,1258,-68,-13161
11.592499,1262,-33,-13147
11.608124,1281,-83,-13181
11.623749,1285,73,-13165
11.639374,1312,105,-13145
11.654999,1315,51,-13183
11.670624,1308,124,-13199
11.686249,1324,121,-13181
11.701874,1324,142,-13170
11.717499,1310,273,-13167
11.733124,1274,239,-13160
11.748749,1251,187,-13172
11.764374,1267,296,-13197
11.779999,1258,301,-13185
11.795624,1201,301,-13135
11.811249,1148,391,-13144
11.826874,1137,364,-13172
11.842499,1098,391,-13158
11.858124,1074,478,-13172
11.873749,1039,448,-13161
11.889374,957,487,-13163
11.904999,960,519,-13165
11.920624,919,460,-13131
11.936249,892,524,-13186
11.951874,907,549,-13149
11.967499,807,462,-13106
11.983124,789,503,-13201
11.998749,765,492,-13135
12.014374,676,412,-13126
12.029999,662,482,-13217
12.045624,596,442,-13140
12.061249,558,326,-13144
12.076874,574,439,-13181
12.092499,501,464,-13133
12.108124,455,335,-13178
12.123749,473,362,-13195
12.139252,437,346,-13145
12.154877,432,258,-13194
12.170502,451,321,-13190
12.186127,412,276,-13111
12.201752,417,141,-13149
12.217377,414,199,-13167
12.233002,385,148,-13117
12.248627,383,16,-13154
12.264252,374,80,-13178
12.279877,366,66,-13151
12.295502,383,-54,-13147
12.311127,412,-17,-13158
12.326752,435,0,-13183
12.342377,457,-108,-13163
12.358002,444,-102,-13151
12.373627,483,-136,-13179
12.389252,526,-220,-13158
12.404877,541,-202,-13161
12.420502,598,-215,-13201
12.436127,599,-275,-13179
12.451752,630,-242,-13163
12.467377,676,-265,-13195
12.483002,676,-331,-13197
12.498627,739,-215,-13161
12.514252,805,-249,-13147
12.529877,812,-359,-13174
12.545502,878,-279,-13192
12.561127,940,-336,-13167
12.576752,949,-393,-13176
12.592377,1010,-283,-13169
12.608002,1078,-317,-13149
12.623627,1085,-333,-13181
12.639252,1080,-249,-13160
12.654877,1124,-324,-13151
12.670502,1171,-288,-13192
12.686127,1174,-161,-13163
12.701752,1180,-227,-13144
12.717377,1242,-179,-13161
12.733002,1280,-74,-13154
12.748627,1283,-120,-13154
12.764252,1308,-58,-13147
12.779877,1323,-11,-13172
12.795502,1364,-99,-13197
12.811127,1364,3,-13144
12.826752,1349,48,-13161
12.842377,1342,55,-13158
12.858002,1333,173,-13115
12.873627,1365,116,-13179
12.889252,1342,157,-13176
12.904877,1314,248,-13144
12.920502,1306,192,-13186
12.936127,1312,242,-13188
12.951752,1265,330,-13124
12.967377,1214,312,-13178
12.983002,1223,353,-13186
12.998627,1137,408,-13104
13.014252,1153,362,-13211
13.029877,1151,392,-13183
13.045502,1048,421,-13140
13.061127,1082,405,-13199
13.076752,982,496,-13095
13.092377,946,516,-13188
13.108002,971,449,-13194
13.123627,803,483,-13069
13.139252,844,503,-13242
13.154877,853,483,-13194
13.170502,690,499,-13076
13.186127,721,464,-13211
13.201752,708,442,-13165
13.217377,608,485,-13108
13.233002,607,432,-13215
13.248627,596,396,-13165
13.264252,539,448,-13106
13.279877,510,380,-13201
13.295502,478,301,-13145
13.311127,441,342,-13120
13.326752,437,283,-13208
13.342377,405,212,-13158
13.358002,387,264,-13154
13.373627,382,174,-13188
13.389252,389,103,-13151
13.404877,405,224,-13176
13.420502,387,160,-13188
13.436127,405,66,-13144
13.451752,399,116,-13163
13.467377,360,-38,-13170
13.483002,407,-95,-13151
13.498627,449,-11,-13183
13.514252,453,-122,-13170
13.529877,471,-124,-13161
13.545502,512,-75,-13183
13.561127,533,-190,-13161
13.576752,505,-206,-13136
13.592377,560,-197,-13145
13.608002,610,-290,-13167
13.623627,617,-270,-13163
13.639252,690,-250,-13156
13.654877,733,-354,-13188
13.670502,762,-320,-13185
13.686127,819,-272,-13167
13.701752,858,-331,-13195
13.717377,885,-299,-13174
13.733002,940,-295,-13156
13.748627,940,-349,-13195
13.764252,962,-293,-13172
13.779877,1051,-317,-13179
13.795502,1044,-365,-13220
13.811127,1098,-283,-13161
13.826752,1167,-300,-13142
13.842377,1160,-252,-13161
13.858002,1190,-172,-13172
13.873627,1223,-268,-13197
13.889252,1249,-202,-13174
13.904877,1287,-86,-13153
13.920502,1296,-175,-13176
13.936127,1285,-106,-13158
13.951752,1315,-22,-13170
13.967377,1344,-92,-13204
13.983002,1328,41,-13133
13.998627,1342,58,-13165
14.014252,1371,-29,-13204
14.029877,1351,74,-13133
14.045502,1362,48,-13186
14.061127,1355,89,-13201
14.076752,1287,237,-13119
14.092377,1271,217,-13154
14.108002,1301,242,-13192
14.123627,1251,324,-13136
14.139252,1233,298,-13161
14.154877,1228,353,-13169
14.170502,1132,444,-13169
14.186127,1174,378,-13206
14.201752,1121,424,-13115
14.217377,1057,471,-13192
14.233002,1114,376,-13219
14.248627,971,433,-13103
14.264252,985,482,-13231
14.279877,958,391,-13160
14.295502,819,455,-13122
14.311127,921,521,-13251
14.326752,801,439,-13110
14.342377,705,496,-13154
14.358002,765,462,-13219
14.373627,653,401,-13126
14.389252,632,532,-13174
14.404877,601,424,-13161
14.420502,591,362,-13158
14.436127,605,496,-13181
14.451752,517,403,-13161
14.467377,499,280,-13154
14.483002,491,358,-13142
14.498627,471,253,-13161
14.514252,471,198,-13208
14.529877,428,333,-13185
14.545502,399,155,-13135
14.561127,412,110,-13201
14.576752,391,255,-13178
14.592377,362,126,-13088
14.608002,385,21,-13154
14.623627,408,112,-13201
14.639252,417,55,-13149
14.654877,430,-27,-13176
14.670502,437,24,-13197
14.686127,457,-99,-13149
14.701752,473,-168,-13160
14.717377,492,-109,-13174
14.733002,516,-200,-13154
14.748627,517,-236,-13136
14.764252,557,-161,-13158
14.779877,587,-243,-13188
14.795502,598,-297,-13153
14.811127,674,-224,-13147
14.826752,705,-317,-13186
14.842377,735,-358,-13176
14.858002,848,-256,-13163
14.873627,844,-320,-13151
14.889252,862,-327,-13136
14.904877,935,-288,-13167
14.920502,919,-372,-13194
14.936127,980,-356,-13192
14.951752,1015,-349,-13172
14.967377,1017,-365,-13151
14.983002,1090,-268,-13174
14.998627,1137,-256,-13192
15.014252,1140,-308,-13172
15.029877,1185,-225,-13181
15.045502,1239,-215,-13174
15.061127,1246,-224,-13136
15.076752,1283,-120,-13167
15.092377,1292,-140,-13172
15.108002,1278,-97,-13160
15.123627,1319,-34,-13176
15.139252,1369,-106,-13165
15.154877,1364,-34,-13169
15.170502,1362,-9,-13185
15.186127,1360,-63,-13165
15.201752,1324,107,-13154
15.217377,1348,149,-13176
15.233002,1319,98,-13167
15.248627,1289,217,-13167
15.264252,1298,258,-13128
15.279877,1271,253,-13161
15.295502,1283,319,-13199
15.311127,1221,344,-13115
15.326752,1199,339,-13185
15.342377,1189,401,-13194
15.358002,1124,410,-13133
15.373627,1135,405,-13195
15.389252,1062,457,-13165
15.404877,1001,410,-13142
15.420502,999,426,-13170
15.436127,953,485,-13167
15.451752,933,432,-13169
15.467377,882,473,-13170
15.483002,839,510,-13172
15.498627,794,437,-13151
15.514252,737,510,-13147
15.529877,707,491,-13158
15.545502,676,378,-13174
15.561127,687,491,-13178
15.576752,639,499,-13165
15.592377,582,380,-13188
15.608002,558,378,-13163
15.623627,516,405,-13149
15.639252,476,333,-13144
15.654877,458,305,-13145
15.670502,501,364,-13185
15.686127,433,255,-13145
15.701752,366,205,-13156
15.717377,433,248,-13178
15.733002,417,164,-13115
15.748627,358,162,-13169
15.764252,392,151,-13215
15.779877,448,51,-13135
15.795502,423,85,-13181
15.811127,392,69,-13213
15.826752,435,-63,-13115
15.842377,432,-58,-13163
15.858002,416,-88,-13201
15.873627,480,-181,-13128
15.889252,489,-100,-13172
15.904877,487,-140,-13190
15.920502,548,-249,-13147
15.936127,537,-152,-13199
15.951752,615,-197,-13179
15.967377,644,-311,-13138
15.983002,598,-258,-13192
15.998627,719,-304,-13169
16.014252,757,-322,-13151
16.029877,787,-265,-13195
16.045502,855,-349,-13142
16.061127,874,-359,-13119
16.076752,905,-324,-13181
16.092377,939,-395,-13178
16.108002,994,-372,-13170
16.123627,1007,-290,-13201
16.139374,1039,-300,-13165
16.154999,1087,-292,-13140
16.170624,1132,-268,-13185
16.186249,1140,-290,-13176
16.201874,1164,-218,-13138
16.217499,1231,-204,-13167
16.233124,1223,-236,-13169
16.248749,1242,-124,-13129
16.264374,1285,-129,-13167
16.279999,1308,-174,-13190
16.295624,1328,-67,-13135
16.311249,1331,-67,-13188
16.326874,1358,-56,-13222
16.342499,1346,67,-13142
16.358124,1349,23,-13203
16.373749,1349,73,-13185
16.389374,1323,160,-13126
16.404999,1342,83,-13208
16.420624,1328,216,-13156
16.436249,1308,287,-13115
16.451874,1308,210,-13197
16.467499,1280,326,-13156
16.483124,1239,369,-13129
16.498749,1246,305,-13195
16.514374,1155,398,-13092
16.529999,1085,399,-13140
16.545624,1174,328,-13247
16.561249,1067,430,-13106
16.576874,1028,441,-13183
16.592499,1064,430,-13201
16.608124,919,541,-13092
16.623749,933,501,-13197
16.639374,917,478,-13156
16.654999,821,558,-13122
16.670624,828,508,-13199
16.686249,753,508,-13145
16.701874,714,532,-13128
16.717499,696,421,-13156
16.733124,653,439,-13169
16.748749,651,474,-13154
16.764374,571,367,-13153
16.779999,533,367,-13179
16.795624,557,426,-13163
16.811249,510,366,-13147
16.826874,451,353,-13138
16.842499,439,378,-13154
16.858124,424,233,-13153
16.873749,426,253,-13172
16.889374,446,296,-13192
16.904999,426,160,-13163
16.920624,414,167,-13154
16.936249,410,158,-13161
16.951874,399,57,-13165
16.967499,364,57,-13163
16.983124,389,10,-13167
16.998749,446,-54,-13169
17.014374,394,32,-13151
17.029999,433,-65,-13165
17.045624,496,-175,-13204
17.061249,458,-68,-13161
17.076874,507,-106,-13147
17.092499,562,-197,-13199
17.108124,569,-140,-13165
17.123749,603,-195,-13149
17.139252,614,-302,-13174
17.154877,646,-245,-13154
17.170502,726,-300,-13179
17.186127,732,-383,-13195
17.201752,755,-329,-13138
17.217377,844,-363,-13138
17.233002,876,-379,-13185
17.248627,903,-277,-13161
17.264252,921,-333,-13149
17.279877,926,-386,-13169
17.295502,1012,-272,-13183
17.311127,1055,-336,-13185
17.326752,1067,-352,-13149
17.342377,1128,-265,-13172
17.358002,1157,-308,-13197
17.373627,1192,-167,-13136
17.389252,1198,-104,-13145
17.404877,1226,-272,-13194
17.420502,1303,-183,-13161
17.436127,1298,-75,-13169
17.451752,1299,-179,-13228
17.467377,1331,-99,-13181
17.483002,1331,-45,-13142
17.498627,1333,-67,-13176
17.514252,1326,62,-13172
17.529877,1326,49,-13172
17.545502,1335,67,-13167
17.561127,1339,192,-13174
17.576752,1331,164,-13165
17.592377,1319,194,-13151
17.608002,1346,285,-13181
17.623627,1317,262,-13144
17.639252,1256,291,-13142
17.654877,1273,324,-13190
17.670502,1265,276,-13172
17.686127,1164,353,-13142
17.701752,1108,403,-13163
17.717377,1112,332,-13186
17.733002,1064,401,-13153
17.748627,1053,473,-13158
17.764252,998,448,-13165
17.779877,949,494,-13172
17.795502,978,476,-13147
17.811127,885,469,-13142
17.826752,889,574,-13229
17.842377,871,508,-13128
17.858002,765,457,-13154
17.873627,790,507,-13244
17.889252,678,399,-13104
17.904877,621,419,-13176
17.920502,660,478,-13204
17.936127,594,380,-13119
17.951752,562,421,-13158
17.967377,519,485,-13158
17.983002,512,387,-13153
17.998627,489,364,-13174
18.014252,442,392,-13183
18.029877,482,242,-13145
18.045502,482,264,-13149
18.061127,433,308,-13170
18.076752,419,141,-13176
18.092377,401,116,-13163
18.108002,380,132,-13144
18.123627,387,62,-13179
18.139252,374,24,-13154
18.154877,382,39,-13156
18.170502,416,-45,-13197
18.186127,417,-79,-13161
18.201752,469,-11,-13181
18.217377,482,-67,-13199
18.233002,467,-127,-13140
18.248627,514,-124,-13153
18.264252,533,-186,-13186
18.279877,567,-222,-13174
18.295502,614,-218,-13188
18.311127,639,-297,-13190
18.326752,649,-322,-13186
18.342377,699,-325,-13188
18.358002,740,-352,-13161
18.373627,755,-317,-13170
18.389252,799,-329,-13185
18.404877,846,-361,-13169
18.420502,898,-317,-13172
18.436127,939,-317,-13151
18.451752,973,-356,-13140
18.467377,1014,-290,-13167
18.483002,1053,-306,-13170
18.498627,1074,-340,-13156
18.514252,1110,-211,-13145
18.529877,1146,-259,-13174
18.545502,1192,-306,-13179
18.561127,1235,-186,-13138
18.576752,1248,-238,-13167
18.592377,1264,-222,-13183
18.608002,1290,-111,-13156
18.623627,1306,-143,-13203
18.639252,1296,-68,-13183
18.654877,1331,-24,-13147
18.670502,1364,-65,-13185
18.686127,1337,73,-13153
18.701752,1335,110,-13160
18.717377,1353,71,-13215
18.733002,1346,162,-13179
18.748627,1312,155,-13145
18.764252,1323,132,-13186
18.779877,1310,239,-13169
18.795502,1278,224,-13176
18.811127,1290,224,-13195
18.826752,1221,362,-13126
18.842377,1208,342,-13172
18.858002,1205,357,-13169
18.873627,1121,476,-13120
18.889252,1151,421,-13215
18.904877,1101,417,-13158
18.920502,1015,483,-13101
18.936127,1030,446,-13197
18.951752,965,499,-13154
18.967377,923,537,-13111
18.983002,924,471,-13195
18.998627,876,499,-13169
19.014252,794,496,-13124
19.029877,773,433,-13220
19.045502,749,476,-13158
19.061127,660,474,-13106
19.076752,669,423,-13228
19.092377,635,480,-13167
19.108002,573,466,-13129
19.123627,589,328,-13181
19.139374,546,385,-13170
19.154999,523,408,-13161
19.170624,492,273,-13128
19.186249,442,328,-13183
19.201874,460,303,-13188
19.217499,444,192,-13101
19.233124,401,217,-13170
19.248749,416,162,-13217
19.264374,424,124,-13140
19.279999,387,173,-13179
19.295624,401,80,-13211
19.311249,437,32,-13154
19.326874,382,119,-13172
19.342499,374,-8,-13160
19.358124,458,-68,-13149
19.373749,474,41,-13181
19.389374,462,-83,-13151
19.404999,485,-170,-13169
19.420624,498,-117,-13188
19.436249,530,-195,-13140
19.451874,562,-243,-13174
19.467499,573,-229,-13190
19.483124,653,-290,-13154
19.498749,685,-293,-13195
19.514374,683,-297,-13181
19.529999,742,-392,-13153
19.545624,753,-350,-13194
19.561249,803,-272,-13170
19.576874,858,-331,-13136
19.592499,889,-320,-13158
19.608124,948,-315,-13172
19.623749,951,-356,-13178
19.639374,989,-288,-13179
19.654999,1064,-297,-13194
19.670624,1090,-333,-13194
19.686249,1119,-229,-13154
19.701874,1157,-268,-13174
19.717499,1164,-327,-13203
19.733124,1205,-211,-13172
19.748749,1258,-218,-13174
19.764374,1262,-175,-13167
19.779999,1255,-81,-13153
19.795624,1285,-165,-13186
19.811249,1321,-100,-13167
19.826874,1335,32,-13151
19.842499,1349,-20,-13192
19.858124,1337,85,-13144
19.873749,1385,149,-13170
19.889374,1424,78,-13172
19.904999,1383,199,-13110
19.920624,1412,174,-13215
19.936249,1398,153,-13161
19.951874,1346,308,-13133
19.967499,1353,285,-13242
19.983124,1333,294,-13129
19.998749,1315,408,-13099
20.014374,1312,394,-13226
20.029999,1271,401,-13142
20.045624,1240,442,-13144
20.061249,1290,439,-13263
20.076874,1185,508,-13120
20.092499,1096,530,-13138
20.108124,1182,499,-13231
20.123749,1069,491,-13108
20.139252,1049,496,-13163
20.154877,1096,548,-13176
20.170502,980,566,-13129
20.186127,974,557,-13201
20.201752,890,528,-13138
20.217377,832,485,-13149
20.233002,898,503,-13211
20.248627,842,519,-13160
20.264252,814,458,-13172
20.279877,823,471,-13185
20.295502,796,458,-13165
20.311127,746,348,-13160
20.326752,724,317,-13153
20.342377,719,271,-13172
20.358002,682,258,-13179
20.373627,687,207,-13138
20.389252,690,130,-13167
20.404877,669,141,-13203
20.420502,715,46,-13156
20.436127,755,73,-13172
20.451752,749,123,-13176
20.467377,753,-17,-13129
20.483002,758,-65,-13183
20.498627,798,-124,-13199
20.514252,846,-190,-13145
20.529877,858,-177,-13170
20.545502,889,-224,-13185
20.561127,958,-250,-13160
20.576752,996,-265,-13167
20.592377,1012,-277,-13160
20.608002,1069,-308,-13161
20.623627,1132,-315,-13169
20.639252,1167,-313,-13172
20.654877,1235,-340,-13178
20.670502,1323,-299,-13153
20.686127,1339,-317,-13165
20.701752,1399,-338,-13185
20.717377,1489,-317,-13169
20.733002,1499,-286,-13176
20.748627,1535,-250,-13197
20.764252,1571,-275,-13186
20.779877,1623,-225,-13151
20.795502,1674,-193,-13140
20.811127,1680,-170,-13158
20.826752,1699,-152,-13199
20.842377,1717,-92,-13169
20.858002,1758,-15,-13154
20.873627,1798,-34,-13195
20.889252,1762,55,-13145
20.904877,1756,78,-13174
20.920502,1773,108,-13185
20.936127,1733,199,-13136
20.951752,1751,185,-13186
20.967377,1739,224,-13161
20.983002,1676,283,-13144
20.998627,1687,339,-13201
21.014252,1644,373,-13158
21.029877,1576,394,-13135
21.045502,1623,383,-13210
21.061127,1556,367,-13158
21.076752,1412,385,-13138
21.092377,1446,403,-13226
21.108002,1385,439,-13136
21.123627,1308,455,-13153
21.139252,1339,489,-13208
21.154877,1240,469,-13158
21.170502,1233,437,-13199
21.186127,1208,467,-13138
21.201752,1067,446,-13126
21.217377,1069,412,-13201
21.233002,1069,389,-13149
21.248627,998,389,-13149
21.264252,949,349,-13154
21.279877,932,294,-13154
21.295502,924,249,-13204
21.311127,894,191,-13186
21.326752,898,196,-13153
21.342377,899,180,-13167
21.358002,844,157,-13161
21.373627,823,92,-13145
21.389252,846,24,-13158
21.404877,871,-13,-13178
21.420502,878,-84,-13204
21.436127,896,-122,-13170
21.451752,973,-159,-13163
21.467377,994,-149,-13199
21.483002,990,-174,-13138
21.498627,1049,-217,-13138
21.514252,1048,-245,-13210
21.529877,1089,-329,-13186
21.545502,1198,-333,-13188
21.561127,1208,-299,-13185
21.576752,1265,-290,-13124
21.592377,1312,-311,-13167
21.608002,1339,-340,-13195
21.623627,1396,-386,-13156
21.639252,1430,-397,-13178
21.654877,1531,-309,-13165
21.670502,1562,-270,-13145
21.686127,1551,-281,-13169
21.701752,1628,-243,-13131
21.717377,1689,-184,-13156
21.733002,1694,-211,-13206
21.748627,1726,-215,-13138
21.764252,1767,-136,-13154
21.779877,1776,-84,-13197
21.795502,1810,-43,-13133
21.811127,1824,-43,-13165
21.826752,1814,3,-13199
21.842377,1824,80,-13153
21.858002,1837,119,-13204
21.873627,1805,173,-13167
21.889252,1773,233,-13110
21.904877,1814,287,-13206
21.920502,1796,287,-13185
21.936127,1739,341,-13160
21.951752,1728,399,-13197
21.967377,1699,376,-13163
21.983002,1680,401,-13192
21.998627,1642,460,-13174
22.014252,1573,510,-13133
22.029877,1556,523,-13192
22.045502,1508,489,-13192
22.061127,1419,514,-13142
22.076752,1414,569,-13167
22.092377,1378,542,-13149
22.108002,1312,549,-13111
22.123627,1301,576,-13167
22.139252,1274,489,-13185
22.154877,1299,430,-13170
22.170502,1267,417,-13163
22.186127,1160,346,-13181
22.201752,1174,346,-13172
22.217377,1192,385,-13115
22.233002,1164,366,-13145
22.248627,1155,273,-13156
22.264252,1183,164,-13149
22.279877,1246,103,-13195
22.295502,1239,89,-13156
22.311127,1210,46,-13133
22.326752,1269,-99,-13181
22.342377,1323,-104,-13158
22.358002,1344,-38,-13136
22.373627,1390,-138,-13154
22.389252,1446,-233,-13156
22.404877,1496,-193,-13167
22.420502,1523,-165,-13156
22.436127,1631,-295,-13165
22.451752,1792,-368,-13206
22.467377,1733,-279,-13188
22.483002,1730,-281,-13188
22.498627,1905,-343,-13203
22.514252,1942,-331,-13161
22.529877,2014,-352,-13174
22.545502,2078,-327,-13206
22.561127,2103,-220,-13183
22.576752,2205,-215,-13188
22.592377,2255,-225,-13192
22.608002,2294,-179,-13142
22.623627,2356,-129,-13138
22.639252,2389,-68,-13145
22.654877,2376,8,-13120
22.670502,2376,69,-13186
22.686127,2401,119,-13199
22.701752,2403,128,-13128
22.717377,2396,112,-13183
22.733002,2394,217,-13185
22.748627,2378,249,-13142
22.764252,2392,205,-13215
22.779877,2346,260,-13185
22.795502,2235,348,-13142
22.811127,2197,401,-13204
22.826752,2106,351,-13190
22.842377,2090,357,-13204
22.858002,2078,437,-13178
22.873627,1933,435,-13156
22.889252,1983,489,-13185
22.904877,1958,491,-13135
22.920502,1787,416,-13181
22.936127,1789,467,-13181
22.951752,1755,476,-13126
22.967377,1674,408,-13178
22.983002,1626,333,-13176
22.998627,1567,239,-13170
23.014252,1556,183,-13179
23.029877,1587,112,-13176
23.045502,1626,57,-13181
23.061127,1628,74,-13167
23.076752,1555,23,-13153
23.092377,1531,-49,-13161
23.108002,1548,-38,-13178
23.123627,1528,-167,-13181
23.139374,1573,-279,-13185
23.154999,1678,-213,-13158
23.170624,1755,-234,-13165
23.186249,1776,-300,-13188
23.201874,1824,-288,-13156
23.217499,1951,-318,-13165
23.233124,1965,-370,-13210
23.248749,2014,-345,-13208
23.264374,2160,-358,-13190
23.279999,2131,-408,-13188
23.295624,2187,-400,-13165
23.311249,2283,-349,-13153
23.326874,2292,-270,-13169
23.342499,2347,-275,-13183
23.358124,2378,-250,-13181
23.373749,2412,-165,-13158
23.389374,2410,-95,-13119
23.404999,2465,-42,-13178
23.420624,2528,-9,-13201
23.436249,2533,26,-13147
23.451874,2590,48,-13199
23.467499,2558,196,-13151
23.483124,2540,221,-13119
23.498749,2524,135,-13161
23.514374,2422,223,-13156
23.529999,2408,246,-13158
23.545624,2339,269,-13163
23.561249,2262,403,-13197
23.576874,2214,423,-13181
23.592499,2144,378,-13203
23.608124,2169,428,-13208
23.623749,2122,451,-13144
23.639374,2021,464,-13153
23.654999,2006,494,-13183
23.670624,1972,448,-13185
23.686249,1835,364,-13153
23.701874,1781,326,-13181
23.717499,1860,339,-13181
23.733124,1774,332,-13124
23.748749,1642,292,-13176
23.764374,1619,174,-13174
23.779999,1590,117,-13169
23.795624,1589,112,-13185
23.811249,1555,28,-13151
23.826874,1531,-9,-13179
23.842499,1621,-9,-13156
23.858124,1673,-40,-13126
23.873749,1660,-115,-13183
23.889374,1642,-138,-13181
23.904999,1701,-199,-13165
23.920624,1751,-331,-13199
23.936249,1789,-342,-13170
23.951874,1878,-354,-13149
23.967499,1906,-397,-13176
23.983124,2010,-372,-13172
23.998749,2049,-367,-13183
24.014374,2094,-381,-13170
24.029999,2206,-363,-13194
24.045624,2197,-340,-13238
24.061249,2274,-311,-13163
24.076874,2369,-245,-13151
24.092499,2380,-242,-13213
24.108124,2424,-267,-13153
24.123749,2488,-172,-13128
24.139252,2517,-122,-13194
24.154877,2546,-134,-13163
24.170502,2563,-63,-13113
24.186127,2546,53,-13170
24.201752,2567,78,-13210
24.217377,2531,107,-13124
24.233002,2472,164,-13104
24.248627,2483,185,-13186
24.264252,2455,264,-13165
24.279877,2387,330,-13111
24.295502,2333,398,-13167
24.311127,2364,432,-13190
24.326752,2296,417,-13140
24.342377,2224,473,-13201
24.358002,2271,460,-13181
24.373627,2128,396,-13154
24.389252,2071,424,-13247
24.404877,2006,396,-13131
24.420502,1855,380,-13136
24.436127,1865,419,-13219
24.451752,1753,373,-13113
24.467377,1694,369,-13144
24.483002,1739,316,-13172
24.498627,1656,242,-13170
24.514252,1621,183,-13208
24.529877,1651,114,-13160
24.545502,1603,132,-13160
24.561127,1562,83,-13195
24.576752,1614,39,-13156
24.592377,1612,-6,-13167
24.608002,1614,-106,-13181
24.623627,1690,-138,-13133
24.639252,1683,-192,-13169
24.654877,1648,-279,-13185
24.670502,1705,-336,-13161
24.686127,1778,-350,-13204
24.701752,1880,-322,-13158
24.717377,1955,-290,-13126
24.733002,1933,-325,-13217
24.748627,2028,-372,-13183
24.764252,2169,-342,-13117
24.779877,2189,-327,-13176
24.795502,2247,-342,-13195
24.811127,2330,-358,-13183
24.826752,2364,-313,-13161
24.842377,2399,-206,-13149
24.858002,2447,-222,-13210
24.873627,2499,-242,-13179
24.889252,2512,-143,-13136
24.904877,2517,-72,-13201
24.920502,2553,-50,-13149
24.936127,2546,-17,-13140
24.951752,2544,12,-13253
24.967377,2555,42,-13172
24.983002,2515,158,-13147
24.998627,2505,233,-13220
25.014252,2433,248,-13117
25.029877,2383,292,-13161
25.045502,2410,344,-13238
25.061127,2315,385,-13169
25.076752,2287,387,-13190
25.092377,2272,407,-13165
25.108002,2164,446,-13170
25.123627,2115,432,-13188
25.139252,2033,423,-13140
25.154877,1967,444,-13170
25.170502,1889,414,-13145
25.186127,1794,412,-13147
25.201752,1790,430,-13161
25.217377,1710,358,-13120
25.233002,1646,283,-13169
25.248627,1683,282,-13158
25.264252,1671,258,-13133
25.279877,1626,135,-13186
25.295502,1628,82,-13160
25.311127,1633,76,-13147
25.326752,1553,-8,-13190
25.342377,1571,-74,-13151
25.358002,1660,-133,-13154
25.373627,1633,-193,-13195
25.389252,1671,-247,-13153
25.404877,1724,-283,-13183
25.420502,1760,-295,-13215
25.436127,1833,-338,-13153
25.451752,1881,-352,-13174
25.467377,1939,-342,-13206
25.483002,2028,-336,-13165
25.498627,2110,-343,-13188
25.514252,2133,-381,-13179
25.529877,2210,-409,-13161
25.545502,2299,-370,-13208
25.561127,2342,-299,-13161
25.576752,2355,-286,-13160
25.592377,2405,-252,-13195
25.608002,2501,-172,-13149
25.623627,2497,-134,-13195
25.639252,2542,-136,-13213
25.654877,2621,-65,-13115
25.670502,2638,35,-13172
25.686127,2658,73,-13201
25.701752,2651,148,-13085
25.717377,2646,255,-13181
25.733002,2638,299,-13233
25.748627,2610,344,-13117
25.764252,2603,416,-13154
25.779877,2631,426,-13174
25.795502,2610,428,-13124
25.811127,2551,449,-13195
25.826752,2517,494,-13178
25.842377,2481,564,-13113
25.858002,2444,544,-13181
25.873627,2374,524,-13181
25.889252,2315,564,-13149
25.904877,2265,483,-13174
25.920502,2287,362,-13228
25.936127,2346,349,-13203
25.951752,2247,357,-13140
25.967377,2194,369,-13179
25.983002,2239,328,-13174
25.998627,2196,269,-13133
26.014252,2181,241,-13151
26.029877,2262,124,-13161
26.045502,2319,-9,-13192
26.061127,2362,-74,-13201
26.076752,2463,-117,-13142
26.092377,2497,-154,-13167
26.108002,2499,-236,-13213
26.123627,2596,-265,-13154
26.139252,2672,-234,-13163
26.154877,2792,-243,-13161
26.170502,2913,-293,-13140
26.186127,2937,-415,-13186
26.201752,3076,-372,-13156
26.217377,3196,-263,-13149
26.233002,3213,-309,-13185
26.248627,3329,-245,-13156
26.264252,3429,-143,-13170
26.279877,3487,-154,-13188
26.295502,3544,-124,-13154
26.311127,3569,-67,-13181
26.326752,3633,-29,-13181
26.342377,3644,83,-13131
26.358002,3647,151,-13163
26.373627,3683,174,-13161
26.389252,3647,258,-13185
26.404877,3688,301,-13254
26.420502,3660,360,-13106
26.436127,3569,396,-13170
26.451752,3579,414,-13278
26.467377,3469,519,-13067
26.483002,3438,516,-13195
26.498627,3446,441,-13251
26.514252,3353,469,-13078
26.529877,3304,394,-13224
26.545502,3194,285,-13267
26.561127,3210,278,-13161
26.576752,3188,267,-13153
26.592377,3049,214,-13176
26.608002,3119,92,-13183
26.623627,3149,19,-13165
26.639252,3119,-49,-13179
26.654877,3163,-125,-13201
26.670502,3194,-188,-13179
26.686127,3237,-274,-13174
26.701752,3287,-229,-13199
26.717377,3340,-263,-13185
26.733002,3440,-395,-13158
26.748627,3567,-379,-13170
26.764252,3692,-402,-13183
26.779877,3819,-497,-13176
26.795502,3854,-452,-13176
26.811127,3922,-300,-13165
26.826752,4045,-302,-13185
26.842377,4047,-313,-13185
26.858002,4104,-227,-13179
26.873627,4170,-213,-13192
26.889252,4179,-99,-13129
26.904877,4269,-22,-13188
26.920502,4324,-6,-13238
26.936127,4249,141,-13133
26.951752,4203,199,-13185
26.967377,4231,126,-13251
26.983002,4138,174,-13154
26.998627,4045,362,-13154
27.014252,4063,460,-13145
27.029877,3944,396,-13156
27.045502,3851,319,-13263
27.061127,3792,366,-13169
27.076752,3656,460,-13122
27.092377,3626,419,-13174
27.108002,3540,351,-13126
27.123627,3424,307,-13178
27.139252,3454,207,-13188
27.154877,3483,71,-13169
27.170502,3449,-67,-13215
27.186127,3422,-115,-13172
27.201752,3435,-117,-13144
27.217377,3446,-163,-13169
27.233002,3483,-288,-13156
27.248627,3542,-324,-13179
27.264252,3603,-236,-13154
27.279877,3699,-315,-13145
27.295502,3819,-420,-13224
27.311127,3888,-402,-13188
27.326752,3953,-409,-13154
27.342377,4108,-370,-13174
27.358002,4156,-290,-13206
27.373627,4210,-336,-13165
27.389252,4306,-365,-13142
27.404877,4342,-236,-13199
27.420502,4390,-174,-13158
27.436127,4392,-156,-13151
27.451752,4445,-70,-13192
27.467377,4449,17,-13204
27.483002,4381,112,-13178
27.498627,4353,171,-13140
27.514252,4269,264,-13170
27.529877,4262,360,-13165
27.545502,4195,373,-13163
27.561127,4063,446,-13201
27.576752,4058,344,-13195
27.592377,3969,203,-13210
27.608002,3879,437,-13174
27.623627,3794,473,-13136
27.639252,3678,341,-13195
27.654877,3612,267,-13195
27.670502,3574,101,-13165
27.686127,3558,96,-13195
27.701752,3497,24,-13192
27.717377,3517,-79,-13174
27.733002,3544,-75,-13170
27.748627,3517,-199,-13190
27.764252,3604,-336,-13206
27.779877,3665,-304,-13190
27.795502,3704,-325,-13203
27.811127,3760,-515,-13188
27.826752,3785,-495,-13161
27.842377,3972,-308,-13117
27.858002,4074,-368,-13186
27.873627,4094,-438,-13220
27.889252,4245,-374,-13149
27.904877,4267,-358,-13208
27.920502,4301,-279,-13185
27.936127,4385,-259,-13169
27.951752,4385,-225,-13178
27.967377,4404,-127,-13145
27.983002,4458,-74,-13183
27.998627,4528,-2,-13170
28.014252,4445,42,-13167
28.029877,4365,119,-13224
28.045502,4420,233,-13169
28.061127,4345,342,-13165
28.076752,4297,323,-13220
28.092377,4220,317,-13111
28.108002,4072,426,-13138
28.123627,4028,367,-13219
28.139374,3870,374,-13160
28.154999,3808,428,-13181
28.170624,3817,348,-13179
28.186249,3703,280,-13167
28.201874,3663,223,-13181
28.217499,3613,191,-13136
28.233124,3554,62,-13151
28.248749,3546,0,-13176
28.264374,3512,-90,-13136
28.279999,3528,-179,-13181
28.295624,3567,-181,-13220
28.311249,3576,-381,-13167
28.326874,3656,-452,-13199
28.342499,3808,-447,-13188
28.358124,3860,-443,-13165
28.373749,3878,-358,-13201
28.389374,3995,-393,-13176
28.404999,4095,-461,-13178
28.420624,4151,-456,-13188
28.436249,4254,-317,-13181
28.451874,4338,-220,-13197
28.467499,4356,-258,-13170
28.483124,4444,-217,-13136
28.498749,4497,-93,-13206
28.514374,4453,-99,-13186
28.529999,4470,-59,-13133
28.545624,4506,73,-13233
28.561249,4453,103,-13142
28.576874,4360,217,-13111
28.592499,4403,278,-13245
28.608124,4342,255,-13147
28.623749,4158,342,-13161
28.639374,4149,332,-13194
28.654999,4037,283,-13147
28.670624,3942,364,-13240
28.686249,3899,323,-13179
28.701874,3754,335,-13145
28.717499,3770,416,-13185
28.733124,3683,205,-13122
28.748749,3546,151,-13183
28.764374,3560,157,-13210
28.779999,3540,-43,-13154
28.795624,3567,-70,-13181
28.811249,3562,-83,-13165
28.826874,3551,-156,-13140
28.842499,3619,-192,-13176
28.858124,3640,-333,-13192
28.873749,3738,-386,-13161
28.889374,3779,-286,-13201
28.904999,3812,-450,-13203
28.920624,4033,-533,-13122
28.936249,4103,-267,-13188
28.951874,4108,-322,-13210
28.967499,4256,-418,-13147
28.983124,4331,-161,-13188
28.998749,4354,-284,-13195
29.014374,4385,-375,-13165
29.029999,4415,-104,-13163
29.045624,4451,-59,-13145
29.061249,4486,-15,-13170
29.076874,4515,12,-13170
29.092499,4458,103,-13169
29.108124,4431,271,-13186
29.123749,4385,223,-13138
29.139252,4269,280,-13185
29.154877,4220,380,-13165
29.170502,4120,344,-13145
29.186127,4083,399,-13208
29.201752,4013,444,-13131
29.217377,3869,358,-13161
29.233002,3851,301,-13215
29.248627,3724,358,-13110
29.264252,3617,374,-13151
29.279877,3621,182,-13245
29.295502,3562,-4,-13183
29.311127,3576,-11,-13122
29.326752,3563,32,-13178
29.342377,3513,-115,-13179
29.358002,3579,-145,-13115
29.373627,3579,-125,-13176
29.389252,3637,-300,-13176
29.404877,3719,-318,-13136
29.420502,3729,-450,-13188
29.436127,3856,-518,-13188
29.451752,3960,-368,-13160
29.467377,4038,-415,-13170
29.483002,4103,-456,-13204
29.498627,4188,-434,-13161
29.514252,4265,-399,-13160
29.529877,4303,-317,-13188
29.545502,4447,-274,-13156
29.561127,4485,-183,-13195
29.576752,4460,-113,-13213
29.592377,4479,-92,-13154
29.608002,4465,-6,-13163
29.623627,4538,69,-13210
29.639252,4454,108,-13199
29.654877,4294,160,-13197
29.670502,4311,201,-13140
29.686127,4206,333,-13156
29.701752,4178,448,-13222
29.717377,4149,367,-13147
29.733002,4015,367,-13136
29.748627,3988,478,-13147
29.764252,3810,355,-13158
29.779877,3687,148,-13233
29.795502,3717,199,-13169
29.811127,3606,330,-13136
29.826752,3517,176,-13199
29.842377,3569,12,-13149
29.858002,3556,35,-13151
29.873627,3515,-84,-13194
29.889252,3535,-236,-13186
29.904877,3588,-325,-13169
29.920502,3619,-261,-13169
29.936127,3610,-317,-13210
29.951752,3708,-586,-13178
29.967377,3826,-422,-13151
29.983002,3917,-331,-13211
29.998627,4012,-484,-13229
30.014252,4104,-433,-13140
30.029877,4169,-490,-13165
30.045502,4256,-381,-13181
30.061127,4361,-218,-13131
30.076752,4372,-288,-13197
30.092377,4470,-143,-13169
30.108002,4519,-54,-13161
30.123627,4454,-115,-13217
30.139252,4478,-11,-13154
30.154877,4419,101,-13167
30.170502,4408,133,-13210
30.186127,4408,196,-13133
30.201752,4320,257,-13199
30.217377,4315,257,-13199
30.233002,4104,401,-13088
30.248627,4040,533,-13204
30.264252,4117,357,-13186
30.279877,3912,321,-13117
30.295502,3826,449,-13211
30.311127,3745,369,-13188
30.326752,3658,285,-13163
30.342377,3663,155,-13183
30.358002,3619,26,-13181
30.373627,3619,39,-13154
30.389252,3528,49,-13154
30.404877,3465,-97,-13220
30.420502,3544,-204,-13178
30.436127,3517,-113,-13172
30.451752,3565,-252,-13206
30.467377,3663,-392,-13201
30.483002,3710,-402,-13165
30.498627,3794,-468,-13163
30.514252,3838,-438,-13247
30.529877,4013,-458,-13165
30.545502,4088,-443,-13192
30.561127,4094,-384,-13228
30.576752,4228,-442,-13131
30.592377,4262,-418,-13195
30.608002,4349,-365,-13181
30.623627,4440,-172,-13178
30.639252,4474,-36,-13201
30.654877,4490,-92,-13161
30.670502,4478,-22,-13244
30.686127,4504,-9,-13192
30.701752,4436,83,-13095
30.717377,4401,191,-13215
30.733002,4381,187,-13217
30.748627,4283,251,-13163
30.764252,4253,321,-13226
30.779877,4156,301,-13192
30.795502,4022,283,-13126
30.811127,3942,442,-13176
30.826752,3847,482,-13178
30.842377,3781,367,-13126
30.858002,3719,344,-13172
30.873627,3644,203,-13172
30.889252,3579,191,-13156
30.904877,3496,189,-13181
30.920502,3465,-61,-13174
30.936127,3497,-77,-13213
30.951752,3512,3,-13183
30.967377,3521,-172,-13163
30.983002,3622,-304,-13190
30.998627,3706,-254,-13120
31.014252,3674,-347,-13201
31.029877,3765,-490,-13226
31.045502,3853,-397,-13108
31.061127,3878,-352,-13192
31.076752,4062,-454,-13210
31.092377,4162,-429,-13124
31.108002,4217,-340,-13131
31.123627,4276,-315,-13219
31.139374,4310,-281,-13192
31.154999,4417,-274,-13133
31.170624,4445,-317,-13203
31.186249,4433,-193,-13194
31.201874,4436,26,-13163
31.217499,4422,57,-13192
31.233124,4356,119,-13194
31.248749,4315,260,-13158
31.264374,4304,274,-13190
31.279999,4212,335,-13215
31.295624,4112,398,-13156
31.311249,4049,403,-13203
31.326874,4019,392,-13203
31.342499,3903,362,-13147
31.358124,3778,398,-13276
31.373749,3812,276,-13204
31.389374,3713,157,-13126
31.404999,3544,162,-13279
31.420624,3533,-15,-13176
31.436249,3528,64,-13144
31.451874,3494,41,-13233
31.467499,3488,-186,-13113
31.483124,3463,-52,-13181
31.498749,3438,-136,-13222
31.514374,3467,-231,-13128
31.529999,3553,-311,-13203
31.545624,3574,-454,-13256
31.561249,3596,-308,-13172
31.576874,3747,-400,-13161
31.592499,3885,-442,-13242
31.608124,4024,-347,-13165
31.623749,4044,-454,-13188
31.639374,4060,-402,-13233
31.654999,4224,-347,-13153
31.670624,4262,-358,-13172
31.686249,4285,-306,-13167
31.701874,4369,-279,-13174
31.717499,4354,-197,-13163
31.733124,4406,-92,-13183
31.748749,4447,-11,-13199
31.764374,4326,167,-13186
31.779999,4365,185,-13211
31.795624,4349,110,-13151
31.811249,4251,224,-13194
31.826874,4301,208,-13219
31.842499,4138,273,-13145
31.858124,4028,403,-13194
31.873749,3979,324,-13197
31.889374,3824,396,-13163
31.904999,3806,467,-13179
31.920624,3728,283,-13179
31.936249,3617,257,-13208
31.951874,3583,223,-13208
31.967499,3583,1,-13161
31.983124,3556,17,-13151
31.998749,3453,55,-13199
32.014374,3447,-11,-13172
32.029999,3485,-100,-13161
32.045624,3456,-363,-13245
32.061249,3517,-318,-13163
32.076874,3597,-117,-13156
32.092499,3660,-345,-13233
32.108124,3735,-502,-13161
32.123749,3808,-397,-13176
32.139252,3903,-402,-13219
32.154877,3954,-584,-13163
32.170502,3960,-795,-13188
32.186127,3937,-775,-13211
32.201752,3915,-649,-13161
32.217377,3885,-634,-13161
32.233002,3810,-574,-13181
32.248627,3731,-565,-13210
32.264252,3599,-542,-13183
32.279877,3513,-322,-13161
32.295502,3471,-267,-13215
32.311127,3304,-274,-13199
32.326752,3174,-149,-13172
32.342377,3067,-47,-13165
32.358002,2919,-100,-13197
32.373627,2767,-122,-13197
32.389252,2580,-6,-13169
32.404877,2447,16,-13215
32.420502,2272,139,-13174
32.436127,2094,208,-13144
32.451752,1990,41,-13151
32.467377,1831,-4,-13135
32.483002,1683,74,-13153
32.498627,1555,128,-13158
32.514252,1399,60,-13183
32.529877,1287,-143,-13178
32.545502,1189,-154,-13154
32.561127,1042,-17,-13179
32.576752,885,-9,-13169
32.592377,807,48,-13151
32.608002,724,28,-13145
32.623627,615,-72,-13169
32.639252,615,-145,-13183
32.654877,505,-213,-13186
32.670502,378,-181,-13199
32.686127,380,-261,-13135
32.701752,244,-186,-13128
32.717377,141,-143,-13183
32.733002,137,-554,-13170
32.748627,78,-565,-13153
32.764252,49,-167,-13183
32.779877,69,-331,-13174
32.795502,5,-658,-13151
32.811127,-75,-440,-13181
32.826752,-77,-342,-13174
32.842377,-63,-547,-13160
32.858002,-102,-406,-13179
32.873627,-161,-649,-13138
32.889252,-193,-952,-13138
32.904877,-202,-384,-13192
32.920502,-143,-340,-13170
32.936127,-211,-875,-13156
32.951752,-275,-675,-13176
32.967377,-224,-283,-13172
32.983002,-220,-452,-13167
32.998627,-225,-584,-13154
33.014252,-234,-577,-13163
33.029877,-243,-715,-13190
33.045502,-267,-754,-13138
33.061127,-249,-729,-13144
33.076752,-265,-699,-13208
33.092377,-247,-618,-13163
33.108002,-225,-475,-13147
33.123627,-263,-325,-13170
33.139252,-233,-174,-13158
33.154877,-234,-38,-13174
33.170502,-236,-6,-13172
33.186127,-249,44,-13163
33.201752,-254,98,-13172
33.217377,-250,98,-13138
33.233002,-229,98,-13167
33.248627,-243,117,-13188
33.264252,-252,66,-13119
33.279877,-217,-33,-13160
33.295502,-236,-111,-13210
33.311127,-218,-225,-13133
33.326752,-225,-317,-13149
33.342377,-254,-393,-13186
33.358002,-259,-458,-13131
33.373627,-259,-472,-13158
33.389252,-293,-465,-13188
33.404877,-297,-454,-13147
33.420502,-272,-395,-13156
33.436127,-290,-311,-13174
33.451752,-250,-229,-13161
33.467377,-222,-149,-13163
33.483002,-204,-95,-13172
33.498627,-211,-29,-13160
33.514252,-220,-2,-13160
33.529877,-240,-2,-13178
33.545502,-268,-2,-13165
33.561127,-272,-34,-13154
33.576752,-275,-77,-13165
33.592377,-258,-124,-13149
33.608002,-275,-202,-13156
33.623627,-279,-277,-13183
33.639252,-279,-304,-13160
33.654877,-227,-349,-13165
33.670502,-215,-367,-13186
33.686127,-227,-393,-13158
33.701752,-220,-390,-13161
33.717377,-272,-338,-13167
33.733002,-275,-315,-13140
33.748627,-290,-250,-13170
33.764252,-297,-179,-13176
33.779877,-283,-111,-13128
33.795502,-249,-68,-13163
33.811127,-270,-61,-13188
33.826752,-263,-45,-13151
33.842377,-218,-29,-13156
33.858002,-249,-72,-13170
33.873627,-258,-125,-13153
33.889252,-275,-156,-13142
33.904877,-261,-234,-13176
33.920502,-283,-288,-13199
33.936127,-284,-288,-13149
33.951752,-254,-299,-13145
33.967377,-268,-318,-13188
33.983002,-258,-306,-13154
33.998627,-245,-299,-13161
34.014252,-259,-293,-13190
34.029877,-249,-259,-13140
34.045502,-199,-229,-13161
34.061127,-242,-192,-13195
34.076752,-286,-159,-13124
34.092377,-277,-120,-13147
34.108002,-290,-83,-13194
34.123627,-267,-88,-13131
34.139252,-263,-86,-13154
34.154877,-261,-99,-13178
34.170502,-222,-136,-13145
34.186127,-240,-156,-13179
34.201752,-267,-208,-13172
34.217377,-247,-272,-13145
34.233002,-263,-299,-13174
34.248627,-265,-313,-13151
34.264252,-250,-309,-13136
34.279877,-281,-295,-13188
34.295502,-261,-292,-13181
34.311127,-242,-258,-13156
34.326752,-259,-195,-13165
34.342377,-250,-165,-13156
34.358002,-240,-165,-13163
34.373627,-267,-145,-13165
34.389252,-263,-138,-13153
34.404877,-245,-163,-13169
34.420502,-256,-163,-13170
34.436127,-265,-129,-13170
34.451752,-279,-152,-13160
34.467377,-258,-192,-13151
34.483002,-261,-188,-13183
34.498627,-258,-202,-13158
34.514252,-236,-217,-13149
34.529877,-256,-234,-13185
34.545502,-245,-274,-13167
34.561127,-254,-277,-13170
34.576752,-281,-272,-13176
34.592377,-267,-272,-13138
34.608002,-261,-261,-13161
34.623627,-267,-225,-13181
34.639252,-234,-188,-13135
34.654877,-220,-174,-13165
34.670502,-252,-152,-13178
34.686127,-254,-131,-13147
34.701752,-270,-113,-13186
34.717377,-259,-134,-13167
34.733002,-243,-170,-13133
34.748627,-283,-188,-13165
34.764252,-267,-209,-13176
34.779877,-267,-224,-13165
34.795502,-247,-252,-13154
34.811127,-234,-245,-13165
34.826752,-267,-229,-13174
34.842377,-240,-243,-13145
34.858002,-240,-242,-13160
34.873627,-268,-229,-13186
34.889252,-267,-211,-13149
34.904877,-247,-220,-13178
34.920502,-286,-222,-13210
34.936127,-281,-211,-13142
34.951752,-254,-188,-13142
34.967377,-268,-161,-13170
34.983002,-249,-159,-13163
34.998627,-249,-150,-13153
35.014252,-242,-156,-13128
35.029877,-252,-165,-13176
35.045502,-258,-172,-13192
35.061127,-261,-192,-13138
35.076752,-281,-225,-13178
35.092377,-275,-245,-13178
35.108002,-277,-254,-13124
35.123627,-288,-245,-13185
35.139374,-274,-240,-13194
35.154999,-227,-252,-13153
35.170624,-236,-227,-13188
35.186249,-245,-215,-13169
35.201874,-224,-193,-13147
35.217499,-250,-167,-13170
35.233124,-261,-181,-13169
35.248749,-274,-168,-13172
35.264374,-290,-175,-13144
35.279999,-256,-208,-13144
35.295624,-242,-192,-13195
35.311249,-261,-192,-13163
35.326874,-258,-215,-13135
35.342499,-247,-200,-13190
35.358124,-245,-208,-13174
35.373749,-231,-222,-13142
35.389374,-277,-209,-13179
35.404999,-277,-234,-13163
35.420624,-231,-247,-13142
35.436249,-268,-236,-13178
35.451874,-283,-215,-13163
35.467499,-270,-184,-13156
35.483124,-274,-181,-13192
35.498749,-256,-183,-13169
35.514374,-242,-172,-13156
35.529999,-256,-174,-13178
35.545624,-245,-190,-13169
35.561249,-258,-181,-13169
35.576874,-279,-177,-13176
35.592499,-258,-199,-13151
35.608124,-267,-209,-13158
35.623749,-275,-215,-13181
35.639374,-259,-215,-13147
35.654999,-233,-215,-13165
35.670624,-254,-220,-13206
35.686249,-243,-224,-13149
35.701874,-208,-211,-13145
35.717499,-249,-208,-13185
35.733124,-261,-222,-13140
35.748749,-252,-211,-13156
35.764374,-274,-200,-13186
35.779999,-265,-220,-13138
35.795624,-243,-215,-13185
35.811249,-277,-179,-13203
35.826874,-254,-184,-13122
35.842499,-243,-186,-13176
35.858124,-267,-193,-13203
35.873749,-227,-202,-13103
35.889374,-233,-177,-13153
35.904999,-261,-200,-13219
35.920624,-236,-236,-13138
35.936249,-243,-213,-13154
35.951874,-295,-199,-13190
35.967499,-279,-227,-13135
35.983124,-261,-220,-13174
35.998749,-256,-193,-13185
36.014374,-229,-188,-13138
36.029999,-242,-186,-13181
36.045624,-233,-197,-13185
36.061249,-236,-195,-13147
36.076874,-247,-188,-13153
36.092499,-250,-192,-13165
36.108124,-274,-183,-13153
36.123749,-268,-186,-13153
36.139252,-275,-197,-13154
36.154877,-270,-195,-13147
36.170502,-254,-193,-13161
36.186127,-252,-195,-13163
36.201752,-258,-181,-13144
36.217377,-250,-193,-13158
36.233002,-243,-218,-13176
36.248627,-238,-215,-13142
36.264252,-252,-206,-13140
36.279877,-277,-225,-13203
36.295502,-256,-234,-13178
36.311127,-250,-209,-13136
36.326752,-277,-193,-13192
36.342377,-267,-197,-13172
36.358002,-231,-199,-13145
36.373627,-263,-183,-13172
36.389252,-254,-204,-13147
36.404877,-225,-202,-13169
36.420502,-249,-190,-13203
36.436127,-254,-208,-13149
36.451752,-272,-193,-13144
36.467377,-263,-192,-13163
36.483002,-258,-208,-13151
36.498627,-272,-211,-13179
36.514252,-272,-195,-13172
36.529877,-227,-211,-13144
36.545502,-247,-233,-13176
36.561127,-284,-206,-13169
36.576752,-233,-188,-13120
36.592377,-236,-197,-13156
36.608002,-277,-200,-13192
36.623627,-275,-202,-13145
36.639252,-263,-209,-13147
36.654877,-277,-200,-13188
36.670502,-245,-199,-13156
36.686127,-259,-193,-13147
36.701752,-274,-200,-13192
36.717377,-245,-190,-13149
36.733002,-267,-183,-13149
36.748627,-265,-204,-13204
36.764252,-274,-197,-13120
36.779877,-274,-167,-13136
36.795502,-249,-188,-13208
36.811127,-225,-265,-13144
36.826752,-300,-245,-13167
36.842377,-284,-261,-13161
36.858002,-222,-284,-13128
36.873627,-286,-222,-13210
36.889252,-259,-252,-13192
36.904877,-227,-284,-13154
36.920502,-245,-202,-13190
36.936127,-270,-142,-13145
36.951752,-243,-145,-13119
36.967377,-250,-97,-13185
36.983002,-288,-100,-13158
36.998627,-272,-138,-13145
37.014252,-170,-113,-13253
37.029877,-202,-13,-13145
37.045502,-365,80,-12976
37.061127,-325,-49,-13124
37.076752,-258,-258,-13226
37.092377,-225,-258,-13144
37.108002,-292,-179,-13160
37.123627,-261,-254,-13201
37.139252,-252,-247,-13169
37.154877,-283,-184,-13163
37.170502,-143,-211,-13201
37.186127,-270,-193,-13201
37.201752,-268,-211,-13144
37.217377,-236,-245,-13124
37.233002,-300,-259,-13153
37.248627,-217,-218,-13170
37.264252,-290,-172,-13185
37.279877,-281,-225,-13163
37.295502,-240,-290,-13169
37.311127,-258,-359,-13199
37.326752,-268,-379,-13151
37.342377,-236,-372,-13147
37.358002,-231,-306,-13170
37.373627,-286,-188,-13126
37.389252,-211,-115,-13153
37.404877,-275,1,-13185
37.420502,-279,76,-13156
37.436127,-208,162,-13190
37.451752,-281,133,-13188
37.467377,-233,-88,-13144
37.483002,-242,-234,-13138
37.498627,-254,-359,-13140
37.514252,-300,-422,-13158
37.529877,-277,-443,-13156
37.545502,-252,-343,-13174
37.561127,-258,-234,-13190
37.576752,-202,-225,-13140
37.592377,-404,-2,-13167
37.608002,-206,-68,-13176
37.623627,-97,-224,-13131
37.639252,-275,-284,-13165
37.654877,-295,-431,-13185
37.670502,-315,-302,-13169
37.686127,-154,-220,-13160
37.701752,-208,-220,-13229
37.717377,-281,-233,-13256
37.733002,-170,-147,-13167
37.748627,-167,46,-13140
37.764252,-275,14,-13136
37.779877,-268,-31,-13156
37.795502,-304,-74,-13178
37.811127,-336,-350,-13222
37.826752,-213,-404,-13115
37.842377,-213,-275,-13194
37.858002,-318,-147,-13360
37.873627,-325,160,-12324
37.889252,-220,-238,-12096
37.904877,-100,-815,-13220
37.920502,-358,-188,-13420
37.936127,-20,-6,-13410
37.951752,346,-461,-13315
37.967377,-433,-288,-13088
37.983002,-306,-97,-13172
37.998627,-215,-156,-13072
38.014252,-874,-279,-13001
38.029877,-645,-27,-13120
38.045502,-45,-74,-13197
38.061127,-397,-186,-13022
38.076752,-363,74,-12922
38.092377,405,-147,-13154
38.108002,-27,-359,-13208
38.123627,-408,-267,-13165
38.139252,-342,-199,-13170
38.154877,-222,-261,-13197
38.170502,-252,-179,-13201
38.186127,-534,-147,-13174
38.201752,-118,-190,-13242
38.217377,-229,-11,-13128
38.233002,-497,-620,-12938
38.248627,55,-947,-13053
38.264252,-29,-90,-13233
38.279877,-449,96,-13183
38.295502,-431,-177,-13160
38.311127,3,-286,-13240
38.326752,-17,-317,-13170
38.342377,-583,-106,-13149
38.358002,-297,-134,-13192
38.373627,-136,-190,-13197
38.389252,-315,-159,-13213
38.404877,-204,-217,-13170
38.420502,-234,-220,-13153
38.436127,-268,-159,-13154
38.451752,-284,-79,-13179
38.467377,-274,-134,-13178
38.483002,-192,-218,-13133
38.498627,-209,-181,-13163
38.514252,-213,-163,-13190
38.529877,-222,-195,-13167
38.545502,-318,-227,-13158
38.561127,-311,-206,-13160
38.576752,-275,-158,-13158
38.592377,-227,-150,-13169
38.608002,-229,-161,-13167
38.623627,-308,-156,-13190
38.639252,-252,-177,-13178
38.654877,-192,-229,-13131
38.670502,-195,-240,-13178
38.686127,-218,-140,-13203
38.701752,-288,-56,-13119
38.717377,-281,-206,-13067
38.733002,-309,-281,-13129
38.748627,-270,-165,-13219
38.764252,-156,-256,-13128
38.779877,-425,-183,-13158
38.795502,-204,-186,-13203
38.811127,-167,-675,-12819
38.826752,-799,-488,-13028
38.842377,-286,-65,-13385
38.858002,-84,-111,-13120
38.873627,-334,-177,-13119
38.889252,-122,-225,-13181
38.904877,-218,-243,-13086
38.920502,-238,-277,-13092
38.936127,-254,-279,-13206
38.951752,-277,-222,-13233
38.967377,-313,-97,-13195
38.983002,-313,-95,-13222
38.998627,-211,-200,-13151
39.014252,-211,-192,-13103
39.029877,-215,-154,-13188
39.045502,-188,-195,-13226
39.061127,-133,-242,-13136
39.076752,-259,-159,-13074
39.092377,-404,-97,-13149
39.108002,-286,-142,-13179
39.123627,-227,-163,-13151
39.139252,-245,-161,-13186
39.154877,-233,-145,-13158
39.170502,-259,-145,-13135
39.186127,-259,-179,-13208
39.201752,-188,-233,-13201
39.217377,-227,-222,-13124
39.233002,-347,-181,-13122
39.248627,-274,-209,-13151
39.264252,-193,-184,-13176
39.279877,-274,-129,-13195
39.295502,-256,-163,-13185
39.311127,-243,-193,-13161
39.326752,-338,-161,-13145
39.342377,-254,-218,-13197
39.358002,-92,-261,-13233
39.373627,-208,-81,-13183
39.389252,-352,-175,-13138
39.404877,-317,-395,-13020
39.420502,-374,-202,-13011
39.436127,-108,-204,-13226
39.451752,-145,-131,-13140
39.467377,-791,135,-13056
39.483002,-243,-297,-13322
39.498627,92,-456,-13310
39.514252,-333,-113,-13176
39.529877,-161,-117,-13161
39.545502,-304,-134,-13106
39.561127,-317,-193,-13097
39.576752,-142,-224,-13185
39.592377,-224,-175,-13185
39.608002,-217,-161,-13119
39.623627,-258,-47,-13181
39.639252,-306,-17,-13165
39.654877,-281,-120,-13108
39.670502,-263,-131,-13194
39.686127,-286,-167,-13154
39.701752,-274,-292,-13045
39.717377,-231,-268,-13203
39.733002,-122,-225,-13245
39.748627,-111,-143,-13154
39.764252,-240,-49,-13129
39.779877,-233,-52,-13092
39.795502,-222,-33,-13213
39.811127,-274,-88,-13169
39.826752,-249,-143,-13229
39.842377,-250,-265,-13563
39.858002,-349,-393,-13397
39.873627,-283,-259,-13117
39.889252,-165,-195,-13167
39.904877,-117,-315,-13247
39.920502,-206,-252,-13111
39.936127,-370,-195,-13204
39.951752,-179,-361,-13353
39.967377,-584,-204,-12404
39.983002,-950,-52,-12283
39.998627,-188,-258,-13254
40.014252,-50,-109,-13281
40.029877,-258,28,-13165
40.045502,-161,-177,-13195
40.061127,-331,-208,-13190
40.076752,-379,-99,-13235
40.092377,-284,-125,-13120
40.108002,-209,-231,-13104
40.123627,-163,-258,-13183
40.139221,-174,-256,-13149
40.154846,-236,-261,-13151
40.170471,-284,-267,-13203
40.186096,-284,-245,-13161
40.201721,-284,-211,-13154
40.217346,-283,-215,-13213
40.232971,-267,-200,-13195
40.248596,-229,-175,-13111
40.264221,-222,-161,-13147
40.279846,-227,-136,-13197
40.295471,-250,-161,-13144
40.311096,-317,-190,-13147
40.326721,-329,-122,-13183
40.342346,-281,-75,-13160
40.357971,-284,-167,-13136
40.373596,-279,-229,-13165
; 40 stopping logging: shutdown: switched off
