;Title, http://www.gcdataconcepts.com, x2-2,Kionix KXRB5-2050
;Version, 1102, Build date, Oct  6 2015,  SN:CCDC10023F56AE8
;Start_time, 2007-02-11, 22:52:19.739
;Temperature, -999.00, deg C,  Vbat, 4144, mv
;Gain, high
;SampleRate, 64,Hz
;Deadband, 0, counts
;DeadbandTimeout, 0,sec
;Headers, time,Ax,Ay,Az
0.403290,1439,1589,-13638
0.418915,1285,1646,-13458
0.434540,1167,1517,-13294
0.450165,1103,1449,-13024
0.465790,1121,1492,-13058
0.481415,1165,1524,-13635
0.497040,1276,1576,-13799
0.528290,1224,1553,-13465
0.543915,1012,1505,-13081
0.559540,1035,1505,-12920
0.575165,1040,1519,-13320
0.590790,974,1569,-13722
0.606415,1096,1556,-13642
0.622040,1108,1471,-13304
0.637665,1039,1494,-12953
0.653290,1017,1555,-13103
0.668915,992,1562,-13583
0.684540,976,1639,-13658
0.700165,908,1676,-13504
0.715790,915,1551,-13254
0.731415,1040,1451,-13031
0.747040,1035,1506,-13244
0.762665,983,1565,-13460
0.778290,1001,1615,-13494
0.793915,932,1676,-13511
0.809540,930,1603,-13367
0.825165,1015,1558,-13290
0.840790,1051,1546,-13297
0.856415,1073,1523,-13219
0.872040,1030,1621,-13295
0.887665,989,1671,-13447
0.903290,987,1667,-13474
0.918915,1040,1605,-13501
0.934540,1124,1503,-13397
0.950165,1110,1514,-13199
0.965790,1046,1533,-13213
0.981415,999,1580,-13313
0.997040,1055,1585,-13410
1.012665,1178,1530,-13463
1.028290,1207,1531,-13433
1.043915,1194,1496,-13428
1.059540,1158,1462,-13351
1.075165,1096,1446,-13238
1.090790,1105,1440,-13210
1.106415,1182,1419,-13215
1.122040,1248,1369,-13338
1.137665,1280,1392,-13597
1.153412,1219,1446,-13576
1.169037,1144,1356,-13249
1.184662,1155,1251,-13067
1.200287,1157,1249,-13119
1.215912,1194,1235,-13353
1.231537,1258,1240,-13570
1.247162,1294,1203,-13531
1.262787,1271,1158,-13279
1.278412,1203,1132,-13122
1.294037,1205,1065,-13244
1.309662,1248,1040,-13372
1.325287,1207,1092,-13335
1.340912,1167,1058,-13413
1.356537,1262,910,-13386
1.372162,1244,928,-13099
1.387787,1198,907,-13219
1.403412,1210,837,-13403
1.419037,1110,933,-13260
1.434662,1115,889,-13356
1.450287,1185,749,-13345
1.465912,1160,749,-13133
1.481537,1155,714,-13278
1.497162,1149,669,-13333
1.512787,1082,742,-13206
1.528412,1051,712,-13345
1.544037,1044,637,-13367
1.559662,1067,564,-13238
1.575287,1060,512,-13213
1.590912,985,532,-13220
1.606537,1012,480,-13292
1.622162,982,503,-13267
1.637787,951,512,-13308
1.653412,958,441,-13385
1.669037,880,453,-13219
1.684662,921,367,-13195
1.700287,940,287,-13253
1.715912,857,346,-13156
1.731537,833,348,-13256
1.747162,830,330,-13370
1.762787,812,339,-13278
1.778412,798,269,-13249
1.794037,728,214,-13201
1.809662,683,230,-13144
1.825287,673,233,-13240
1.840912,667,228,-13236
1.856537,714,232,-13236
1.872162,655,199,-13335
1.887787,621,182,-13211
1.903412,642,185,-13204
1.919037,560,137,-13290
1.934662,528,137,-13090
1.950287,532,167,-13181
1.965912,499,153,-13399
1.981537,519,183,-13249
1.997162,524,149,-13235
2.012787,439,126,-13197
2.028412,376,183,-13047
2.044037,349,135,-13194
2.059662,391,110,-13281
2.075287,444,137,-13276
2.090912,351,123,-13265
2.106537,358,108,-13115
2.122162,382,119,-13199
2.137787,298,155,-13297
2.153290,344,121,-13188
2.168915,285,83,-13253
2.184540,269,124,-13219
2.200165,355,149,-13119
2.215790,251,137,-13279
2.231415,289,114,-13308
2.247040,280,183,-13222
2.262665,128,207,-13206
2.278290,230,112,-13170
2.293915,292,110,-13228
2.309540,266,114,-13279
2.325165,214,173,-13245
2.340790,153,210,-13224
2.356415,241,137,-13172
2.372040,223,173,-13210
2.387665,239,158,-13285
2.403290,267,178,-13217
2.418915,139,244,-13229
2.434540,216,121,-13238
2.450165,273,130,-13161
2.465790,192,217,-13213
2.481415,251,151,-13274
2.497040,235,216,-13233
2.512665,214,233,-13199
2.528290,282,148,-13240
2.543915,241,216,-13215
2.559540,239,212,-13160
2.575165,269,166,-13278
2.590790,257,196,-13267
2.606415,267,187,-13158
2.622040,269,174,-13253
2.637665,269,194,-13236
2.653290,292,189,-13172
2.668915,273,169,-13251
2.684540,271,173,-13249
2.700165,324,164,-13222
2.715790,299,164,-13231
2.731415,312,169,-13233
2.747040,333,146,-13228
2.762665,287,169,-13206
2.778290,342,169,-13231
2.793915,369,114,-13247
2.809540,389,99,-13235
2.825165,389,149,-13233
2.840790,296,157,-13228
2.856415,371,57,-13229
2.872040,403,101,-13219
2.887665,326,169,-13211
2.903290,419,62,-13195
2.918915,449,42,-13219
2.934540,364,92,-13245
2.950165,419,21,-13185
2.965790,471,-2,-13220
2.981415,387,99,-13251
2.997040,405,41,-13163
3.012665,487,-59,-13208
3.028290,414,12,-13256
3.043915,414,-29,-13170
3.059540,516,-99,-13222
3.075165,414,-20,-13270
3.090790,364,-56,-13126
3.106415,508,-161,-13160
3.122040,480,-115,-13281
3.137665,392,-77,-13190
3.153290,510,-172,-13158
3.168915,514,-197,-13231
3.184540,378,-118,-13195
3.200165,442,-172,-13140
3.215790,519,-259,-13242
3.231415,442,-217,-13256
3.247040,430,-231,-13090
3.262665,514,-324,-13167
3.278290,483,-297,-13276
3.293915,364,-238,-13124
3.309540,464,-336,-13161
3.325165,578,-384,-13242
3.340790,414,-320,-13104
3.356415,389,-372,-13165
3.372040,557,-445,-13254
3.387665,474,-390,-13138
3.403290,344,-365,-13172
3.418915,426,-454,-13222
3.434540,487,-483,-13079
3.450165,392,-443,-13154
3.465790,364,-493,-13317
3.481415,451,-529,-13122
3.497040,460,-529,-13099
3.512665,408,-572,-13272
3.528290,360,-538,-13074
3.543915,421,-581,-13113
3.559540,492,-638,-13304
3.575165,357,-538,-13072
3.590790,342,-615,-13088
3.606415,489,-733,-13236
3.622040,419,-618,-13090
3.637665,266,-556,-13115
3.653290,278,-631,-13206
3.668915,432,-750,-13170
3.684540,464,-783,-13106
3.700165,292,-663,-13078
3.715790,266,-693,-13179
3.731415,337,-768,-13101
3.747040,351,-790,-13108
3.762665,376,-829,-13272
3.778290,257,-693,-13035
3.793915,196,-702,-13028
3.809540,339,-884,-13261
3.825165,392,-872,-13076
3.840790,317,-852,-13092
3.856415,246,-884,-13274
3.872040,224,-816,-13053
3.887665,214,-822,-13011
3.903290,257,-943,-13185
3.918915,285,-954,-13122
3.934540,207,-906,-13131
3.950165,203,-929,-13215
3.965790,249,-938,-13126
3.981415,187,-895,-13017
3.997040,158,-950,-13104
4.012665,269,-1083,-13217
4.028290,249,-1009,-13088
4.043915,85,-911,-13056
4.059540,108,-1002,-13203
4.075165,169,-993,-13115
4.090790,62,-897,-13026
4.106415,55,-1011,-13199
4.122040,217,-1136,-13169
4.137665,210,-1045,-13017
4.153290,58,-1000,-13108
4.168915,37,-1041,-13092
4.184540,91,-1054,-13047
4.200165,91,-1090,-13197
4.215790,32,-1054,-13140
4.231415,17,-1052,-13063
4.247040,83,-1147,-13129
4.262665,76,-1111,-13038
4.278290,-31,-1088,-13079
4.293915,-8,-1125,-13131
4.309540,101,-1095,-13088
4.325165,69,-1152,-13195
4.340790,21,-1161,-13060
4.356415,-4,-1108,-12994
4.372040,-59,-1168,-13170
4.387665,-11,-1147,-13033
4.403290,3,-1120,-13081
4.418915,-102,-1174,-13244
4.434540,-15,-1149,-13020
4.450165,83,-1193,-13085
4.465790,-40,-1225,-13158
4.481415,-111,-1136,-12958
4.497040,-115,-1177,-13103
4.512665,-63,-1204,-13174
4.528290,-33,-1166,-13094
4.543915,-93,-1204,-13115
4.559540,-24,-1222,-13081
4.575165,-34,-1224,-13128
4.590790,-158,-1188,-13029
4.606415,-149,-1174,-12995
4.622040,-127,-1261,-13220
4.637665,-104,-1215,-13097
4.653290,-122,-1138,-13035
4.668915,-183,-1247,-13233
4.684540,-90,-1274,-13036
4.700165,-58,-1227,-12965
4.715790,-175,-1249,-13161
4.731415,-161,-1215,-13090
4.747040,-147,-1193,-13083
4.762665,-208,-1202,-13156
4.778290,-172,-1222,-13117
4.793915,-138,-1284,-13090
4.809540,-181,-1243,-13028
4.825165,-217,-1213,-13070
4.840790,-133,-1318,-13124
4.856415,-59,-1293,-13056
4.872040,-188,-1204,-13122
4.887665,-274,-1190,-13090
4.903290,-202,-1209,-13010
4.918915,-200,-1272,-13153
4.934540,-220,-1288,-13119
4.950165,-124,-1300,-13035
4.965790,-158,-1299,-13136
4.981415,-281,-1218,-13086
4.997040,-275,-1197,-13051
5.012665,-247,-1266,-13140
5.028290,-218,-1284,-13086
5.043915,-181,-1281,-13095
5.059540,-195,-1307,-13126
5.075165,-175,-1300,-13033
5.090790,-165,-1318,-13131
5.106415,-277,-1284,-13156
5.122040,-318,-1206,-12976
5.137665,-286,-1234,-13085
5.153290,-277,-1304,-13192
5.168915,-224,-1274,-13045
5.184540,-242,-1263,-13101
5.200165,-240,-1332,-13153
5.215790,-204,-1297,-13033
5.231415,-306,-1232,-13069
5.247040,-275,-1275,-13111
5.262665,-172,-1336,-13128
5.278290,-283,-1277,-13094
5.293915,-315,-1225,-13042
5.309540,-261,-1306,-13142
5.325165,-256,-1307,-13054
5.340790,-206,-1268,-13042
5.356415,-242,-1338,-13210
5.372040,-218,-1307,-12978
5.387665,-163,-1270,-13006
5.403290,-268,-1343,-13261
5.418915,-229,-1302,-12981
5.434540,-193,-1288,-13026
5.450165,-311,-1334,-13254
5.465790,-250,-1274,-12979
5.481415,-229,-1274,-13031
5.497040,-311,-1311,-13208
5.512665,-258,-1272,-13033
5.528290,-277,-1282,-13060
5.543915,-295,-1302,-13111
5.559540,-256,-1295,-13094
5.575165,-299,-1286,-13097
5.590790,-258,-1261,-13035
5.606415,-283,-1297,-13174
5.622040,-343,-1297,-13120
5.637665,-236,-1247,-12947
5.653290,-249,-1290,-13179
5.668915,-293,-1300,-13119
5.684540,-206,-1252,-12938
5.700165,-284,-1302,-13199
5.715790,-327,-1306,-13104
5.731415,-225,-1261,-12945
5.747040,-283,-1316,-13188
5.762665,-279,-1322,-13090
5.778290,-209,-1286,-12983
5.793915,-272,-1315,-13161
5.809540,-234,-1313,-13092
5.825165,-184,-1309,-13042
5.840790,-229,-1322,-13106
5.856415,-213,-1309,-13056
5.872040,-204,-1322,-13067
5.887665,-199,-1338,-13083
5.903290,-174,-1343,-13090
5.918915,-170,-1357,-13099
5.934540,-136,-1347,-13051
5.950165,-150,-1347,-13072
5.965790,-163,-1354,-13069
5.981415,-72,-1379,-13060
5.997040,-43,-1436,-13156
6.012665,-108,-1391,-13092
6.028290,-152,-1316,-13013
6.043915,-149,-1372,-13122
6.059540,-93,-1395,-13072
6.075165,-93,-1345,-13026
6.090790,-161,-1354,-13122
6.106415,-138,-1361,-13031
6.122040,-90,-1372,-13020
6.137665,-65,-1445,-13140
6.153290,-8,-1440,-13074
6.168915,-42,-1397,-13106
6.184540,-93,-1424,-13099
6.200165,-77,-1324,-13001
6.215790,-156,-1347,-13165
6.231415,32,-1706,-12699
6.247040,615,-1838,-12374
6.262665,853,-1779,-13306
6.278290,735,-1745,-13469
6.293915,701,-1582,-13317
6.309540,480,-1250,-14069
6.325165,83,-927,-13842
6.340790,-197,-1297,-12296
6.356415,-140,-1877,-10953
6.372040,258,-1868,-12135
6.387665,733,-1724,-14697
6.403290,1460,-1693,-14429
6.418915,1980,-1882,-13110
6.434540,1592,-2020,-12758
6.450165,1076,-1841,-11803
6.465790,823,-1752,-11862
6.481415,287,-1599,-13245
6.497040,1005,-1877,-13660
6.512665,2937,-2193,-13260
6.528290,2031,-1077,-13651
6.543915,-122,-117,-14326
6.559540,-424,-115,-13158
6.575165,-1732,141,-12392
6.590790,-3330,360,-13236
6.606415,-3545,480,-12753
6.622040,-4096,778,-12438
6.637665,-4202,773,-13560
6.653290,-3175,396,-13677
6.668915,-2934,326,-13165
6.684540,-3834,708,-13545
6.700165,-4555,1090,-13815
6.715790,-4564,1344,-13131
6.731415,-4002,1314,-12558
6.747040,-2916,935,-12454
6.762665,-1361,721,-12658
6.778290,-283,740,-14149
6.793915,-138,621,-15149
6.809540,191,230,-13454
6.825165,1083,-620,-11706
6.840790,2047,-1606,-11763
6.856415,3146,-2211,-12628
6.872040,4533,-2711,-13515
6.887665,5229,-3047,-13658
6.903290,4472,-3095,-13536
6.918915,3788,-3118,-13245
6.934540,3667,-3209,-12724
6.950165,3615,-3704,-12658
6.965790,4663,-4079,-12197
6.981415,5517,-3645,-12456
6.997040,4213,-2836,-13906
7.012665,3196,-1884,-14022
7.028290,2888,-1268,-13435
7.043915,1335,-1120,-12970
7.059540,171,-702,-11897
7.075165,-215,-158,-12278
7.090790,-954,224,-14083
7.106415,-1168,533,-14461
7.122040,-1159,564,-13969
7.137665,-1866,303,-13485
7.153290,-2718,44,-12472
7.168915,-3507,124,-11649
7.184540,-4202,471,-11810
7.200165,-4616,764,-13156
7.215790,-4564,871,-14238
7.231415,-3579,782,-13820
7.247040,-2939,633,-13594
7.262665,-3450,714,-13590
7.278290,-3648,999,-12958
7.293915,-3563,964,-12749
7.309540,-3395,867,-12519
7.325165,-2647,1055,-12612
7.340790,-1706,1035,-13894
7.356415,-567,830,-14404
7.372040,633,421,-13656
7.387665,1506,-325,-13008
7.403290,2190,-1020,-12817
7.418915,2958,-1816,-12985
7.434540,4158,-2809,-12753
7.450165,5608,-3750,-12310
7.465790,6417,-4532,-12622
7.481415,6565,-4641,-13028
7.497040,6342,-4080,-13451
7.512665,5249,-3429,-13940
7.528290,3722,-2811,-13428
7.543915,2762,-2548,-12444
7.559540,2451,-2525,-11728
7.575165,2540,-2059,-11842
7.590790,2626,-1366,-13465
7.606415,2396,-716,-14667
7.622040,1830,-188,-14106
7.637665,878,64,-13061
7.653290,-408,382,-12476
7.668915,-1948,832,-12799
7.684540,-3225,1092,-13292
7.700165,-4002,1253,-13008
7.715790,-4745,1324,-13072
7.731415,-4780,1107,-13560
7.747040,-4121,799,-13260
7.762665,-4007,696,-12938
7.778290,-4291,912,-13385
7.793915,-4618,1262,-13910
7.809540,-4655,1362,-13576
7.825165,-4166,1190,-12601
7.840790,-3323,826,-12337
7.856415,-1993,469,-12760
7.872040,-543,216,-13406
7.887665,335,-92,-13852
7.903290,942,-465,-13322
7.918915,1883,-1109,-12840
7.934540,2763,-1973,-13095
7.950165,3854,-2845,-13067
7.965790,5558,-3705,-12788
7.981415,6302,-4216,-13042
7.997040,5790,-4200,-13445
8.012665,5492,-3775,-13369
8.028290,4924,-3280,-13276
8.043915,3597,-2889,-12981
8.059540,2540,-2443,-12140
8.075165,2017,-1995,-12049
8.090790,1653,-1361,-13210
8.106415,1153,-592,-14265
8.122040,557,-261,-14131
8.137665,-150,-175,-13192
8.153290,-1227,108,-12499
8.168915,-2381,330,-12456
8.184540,-3359,562,-12692
8.200165,-4477,939,-12992
8.215790,-4986,939,-13317
8.231415,-4030,544,-13292
8.247040,-3120,212,-13197
8.262665,-2988,185,-13378
8.278290,-2936,453,-13654
8.293915,-3243,753,-13902
8.309540,-3548,869,-13519
8.325165,-3098,564,-12665
8.340790,-2123,-33,-12001
8.356415,-1027,-345,-11997
8.372040,-104,-443,-13136
8.387665,644,-624,-14154
8.403290,1399,-834,-14067
8.418915,1842,-1291,-13569
8.434540,2189,-1956,-12951
8.450165,3060,-2650,-12619
8.465790,4038,-3395,-12663
8.481415,4886,-3945,-12710
8.497040,5829,-4339,-12910
8.512665,6317,-4280,-13086
8.528290,5661,-3573,-13442
8.543915,4417,-2904,-13588
8.559540,3454,-2397,-12553
8.575165,2630,-1891,-11885
8.590790,1767,-1247,-12617
8.606415,1165,-450,-13588
8.622040,830,-15,-14045
8.637665,510,99,-13606
8.653290,305,89,-13010
8.668915,124,-11,-13017
8.684540,-322,80,-12961
8.700165,-702,123,-12712
8.715790,-779,73,-12701
8.731415,-795,167,-13228
8.747040,-795,148,-13933
8.762665,-750,0,-13736
8.778290,-741,-172,-12897
8.793915,-575,-388,-12678
8.809540,-517,-327,-13131
8.825165,-891,-40,-13492
8.840790,-1165,14,-13404
8.856415,-1422,-31,-13036
8.872040,-1957,49,-12829
8.887665,-2477,137,-13111
8.903290,-2809,146,-13456
8.918915,-2668,-15,-13265
8.934540,-2291,-243,-12940
8.950165,-2170,-275,-12926
8.965790,-2309,-34,-13176
8.981415,-2863,382,-13454
8.997040,-3713,864,-13378
9.012665,-4421,1281,-13336
9.028290,-4721,1546,-13340
9.043915,-4550,1662,-12778
9.059540,-4255,1910,-12656
9.075165,-3898,2405,-13283
9.090790,-3393,2480,-13486
9.106415,-3309,3015,-13860
9.122040,-3511,4460,-14343
9.137665,-2591,4586,-13738
9.153412,-747,3881,-12726
9.169037,917,3753,-13015
9.184662,2103,3431,-14131
9.200287,2624,3363,-14329
9.215912,2969,3367,-14177
9.231537,3096,2249,-13761
9.247162,3644,1182,-12638
9.262787,4842,467,-12279
9.278412,5394,-565,-12894
9.294037,5433,-1306,-13258
9.309662,5374,-1504,-13310
9.325287,5052,-1675,-13697
9.340912,4124,-2107,-13331
9.356537,3135,-2361,-11817
9.372162,3117,-2593,-11878
9.387787,3504,-2802,-13094
9.403412,3940,-2841,-13540
9.419037,4388,-3009,-13899
9.434662,4031,-2931,-13913
9.450287,2919,-2532,-13335
9.465912,1937,-2345,-12462
9.481537,1451,-2509,-11804
9.497162,1294,-2481,-11903
9.512787,1317,-2041,-12683
9.528412,1214,-1707,-13635
9.544037,769,-1409,-13811
9.559662,371,-1166,-13470
9.575287,367,-1404,-13049
9.590912,935,-2020,-12633
9.606537,2690,-2879,-12917
9.622162,5461,-3568,-13279
9.637787,7117,-3604,-13158
9.653412,6967,-3086,-13254
9.669037,6542,-2047,-13156
9.684662,5836,-838,-13040
9.700287,4749,178,-13229
9.715912,3994,1071,-13179
9.731537,3438,1744,-13485
9.747162,2940,2456,-14119
9.762787,1680,3113,-14247
9.778412,49,3119,-12961
9.794037,-1008,3069,-11094
9.809662,-2293,3078,-11697
9.825287,-2807,2767,-14063
9.840912,-3339,2985,-15101
9.856537,-4696,3233,-14383
9.872162,-5619,2963,-13233
9.887787,-6719,2731,-12940
9.903412,-7976,2719,-12699
9.919037,-8694,2694,-13029
9.934662,-7469,2437,-13817
9.950287,-6107,2567,-13488
9.965912,-6275,2680,-13761
9.981537,-4936,2347,-13154
9.997162,-2318,1871,-12010
10.012787,-900,1331,-13635
10.028412,-47,1090,-14813
10.044037,1098,660,-13588
10.059662,2258,-497,-12174
10.075287,4078,-1963,-11962
10.090912,6326,-3197,-12956
10.106537,7097,-3541,-13740
10.122162,6020,-3461,-14104
10.137787,4720,-3586,-13544
10.153290,3820,-3359,-11903
10.168915,2522,-2998,-11835
10.184540,1217,-2529,-12781
10.200165,846,-1747,-13022
10.215790,823,-1377,-13708
10.231415,658,-1236,-14144
10.247040,389,-975,-13551
10.262665,-293,-963,-13010
10.278290,-1091,-1015,-12519
10.293915,-1484,-968,-12201
10.309540,-1407,-943,-12628
10.325165,-943,-933,-13422
10.340790,-368,-1033,-13865
10.356415,71,-1209,-13544
10.372040,167,-1411,-13138
10.387665,-54,-1572,-12867
10.403290,-188,-1547,-12392
10.418915,-159,-1545,-12499
10.434540,28,-1527,-13003
10.450165,389,-1368,-13319
10.465790,583,-1349,-13686
10.481415,471,-1393,-13554
10.497040,151,-1406,-12890
10.512665,-259,-1425,-12597
10.528290,-483,-1288,-12847
10.543915,-536,-1195,-13104
10.559540,-406,-1056,-13399
10.575165,-95,-886,-13817
10.590790,-56,-1183,-13297
10.606415,-147,-1420,-12294
10.622040,-300,-1306,-12512
10.637665,-531,-1202,-13304
10.653290,-454,-1122,-13404
10.668915,-186,-1195,-13088
10.684540,-13,-1338,-13017
10.700165,-84,-1313,-13203
10.715790,-224,-1227,-13292
10.731415,-354,-1224,-13328
10.747040,-550,-1306,-13011
10.762665,-438,-1322,-12328
10.778290,-183,-1274,-12629
10.793915,-113,-1231,-13636
10.809540,-33,-1056,-13770
10.825165,-75,-1100,-13408
10.840790,-254,-1429,-12906
10.856415,-322,-1468,-12299
10.872040,-392,-1322,-12606
10.887665,-463,-1172,-13429
10.903290,-388,-1068,-13654
10.918915,-317,-1125,-13290
10.934540,-370,-1145,-12931
10.950165,-440,-1229,-13058
10.965790,-425,-1297,-13029
10.981415,-340,-1216,-12872
10.997040,-259,-1307,-13058
11.012665,-81,-1336,-12928
11.028290,74,-1263,-13119
11.043915,-50,-1282,-13717
11.059540,-220,-1215,-13367
11.075165,-293,-1307,-12795
11.090790,-392,-1470,-12665
11.106415,-356,-1349,-12667
11.122040,-236,-1186,-13178
11.137665,-170,-1140,-13692
11.153290,-50,-1208,-13481
11.168915,-31,-1352,-12960
11.184540,-152,-1409,-12674
11.200165,-272,-1382,-12853
11.215790,-318,-1318,-13142
11.231415,-204,-1243,-13201
11.247040,-67,-1295,-13238
11.262665,-8,-1349,-13090
11.278290,-18,-1277,-12986
11.293915,-200,-1297,-13272
11.309540,-331,-1322,-13117
11.325165,-240,-1299,-12729
11.340790,-161,-1404,-12903
11.356415,-38,-1393,-13110
11.372040,82,-1274,-13333
11.387665,-11,-1284,-13503
11.403290,-104,-1324,-13101
11.418915,-156,-1418,-12726
11.434540,-213,-1457,-12719
11.450165,-167,-1332,-12953
11.465790,-115,-1275,-13397
11.481415,-52,-1279,-13419
11.497040,16,-1313,-13090
11.512665,-52,-1427,-12981
11.528290,-108,-1404,-12897
11.543915,-138,-1331,-12983
11.559540,-199,-1382,-13206
11.575165,-84,-1377,-13074
11.590790,58,-1354,-13011
11.606415,16,-1359,-13197
11.622040,-59,-1295,-13242
11.637665,-147,-1284,-13188
11.653290,-234,-1349,-12954
11.668915,-190,-1391,-12769
11.684540,-106,-1413,-12970
11.700165,-50,-1336,-13203
11.715790,-2,-1257,-13401
11.731415,-47,-1315,-13349
11.747040,-84,-1349,-12844
11.762665,-115,-1381,-12774
11.778290,-218,-1393,-13060
11.793915,-192,-1286,-13085
11.809540,-129,-1256,-13265
11.825165,-131,-1299,-13270
11.840790,-113,-1277,-12947
11.856415,-192,-1295,-13015
11.872040,-231,-1356,-13170
11.887665,-188,-1340,-13074
11.903290,-245,-1309,-13010
11.918915,-197,-1315,-12963
11.934540,-84,-1300,-13099
11.950165,-179,-1232,-13294
11.965790,-208,-1204,-13210
11.981415,-170,-1327,-13129
11.997040,-261,-1393,-12926
12.012665,-258,-1302,-12744
12.028290,-245,-1268,-13163
12.043915,-261,-1245,-13374
12.059540,-142,-1208,-13142
12.075165,-124,-1343,-13179
12.090790,-170,-1418,-12983
12.106415,-168,-1306,-12808
12.122040,-290,-1256,-13185
12.137665,-327,-1211,-13229
12.153290,-193,-1229,-13056
12.168915,-127,-1357,-13135
12.184540,-152,-1332,-13094
12.200165,-236,-1234,-13076
12.215790,-333,-1209,-13113
12.231415,-325,-1245,-13051
12.247040,-242,-1352,-13010
12.262665,-99,-1384,-13001
12.278290,-70,-1302,-13220
12.293915,-192,-1263,-13344
12.309540,-172,-1282,-13038
12.325165,-172,-1341,-12940
12.340790,-268,-1361,-12994
12.356415,-209,-1281,-12958
12.372040,-172,-1272,-13254
12.387665,-193,-1299,-13345
12.403290,-127,-1282,-12992
12.418915,-129,-1350,-12970
12.434540,-186,-1384,-13095
12.450165,-188,-1306,-13065
12.465790,-170,-1293,-13111
12.481415,-129,-1313,-13110
12.497040,-83,-1311,-13074
12.512665,-88,-1315,-13070
12.528290,-120,-1293,-13133
12.543915,-175,-1327,-13213
12.559540,-186,-1356,-12985
12.575165,-147,-1363,-12897
12.590790,-163,-1393,-13128
12.606415,-100,-1307,-13083
12.622040,-15,-1263,-13176
12.637665,-113,-1347,-13313
12.653290,-122,-1324,-12913
12.668915,-68,-1334,-12887
12.684540,-165,-1391,-13174
12.700165,-120,-1306,-13085
12.715790,-70,-1306,-13201
12.731415,-125,-1361,-13199
12.747040,-74,-1332,-12931
12.762665,-118,-1352,-13063
12.778290,-184,-1340,-13135
12.793915,-127,-1327,-13078
12.809540,-129,-1356,-13076
12.825165,-77,-1316,-12979
12.840790,-45,-1374,-13174
12.856415,-109,-1315,-13026
12.872040,-79,-1190,-13115
12.887665,-284,-1438,-13660
12.903290,-242,-1363,-12495
12.918915,110,-1216,-12424
12.934540,-224,-1568,-14052
12.950165,-202,-1320,-12992
12.965790,158,-1027,-12497
12.981415,-265,-1497,-14017
12.997040,-274,-1416,-12876
13.012665,33,-1074,-12115
13.028290,-390,-1350,-13742
13.043915,-320,-1340,-13322
13.059540,48,-1141,-12558
13.075165,-234,-1374,-13522
13.090790,-200,-1472,-13279
13.106415,-29,-1297,-12504
13.122040,-227,-1300,-13224
13.137665,-379,-1379,-13420
13.153290,-113,-1174,-12495
13.168915,-9,-1259,-13404
13.184540,-384,-1482,-13815
13.200165,-29,-1149,-12178
13.215790,-25,-1282,-13236
13.231415,-647,-1566,-13885
13.247040,-120,-1158,-11956
13.262665,33,-1281,-13135
13.278290,-525,-1490,-14138
13.293915,-97,-1031,-12313
13.309540,37,-1216,-13054
13.325165,-424,-1520,-13826
13.340790,-161,-1109,-12358
13.356415,-136,-1202,-12958
13.372040,-309,-1461,-13715
13.387665,-108,-1213,-12797
13.403290,-165,-1238,-12874
13.418915,-222,-1425,-13397
13.434540,-192,-1365,-13120
13.450165,-217,-1240,-12831
13.465790,-256,-1277,-13176
13.481415,-313,-1352,-13261
13.497040,-158,-1247,-12765
13.512665,-61,-1261,-13104
13.528290,-209,-1372,-13508
13.543915,-131,-1272,-12869
13.559540,-88,-1302,-12913
13.575165,-292,-1434,-13319
13.590790,-233,-1304,-12860
13.606415,-159,-1249,-12979
13.622040,-225,-1345,-13447
13.637665,-145,-1311,-13036
13.653290,-77,-1297,-12837
13.668915,-143,-1388,-13249
13.684540,-165,-1354,-13136
13.700165,-95,-1263,-12887
13.715790,-127,-1329,-13201
13.731415,-156,-1354,-13151
13.747040,-65,-1284,-12894
13.762665,-118,-1324,-13229
13.778290,-249,-1356,-13267
13.793915,-197,-1325,-12895
13.809540,-152,-1368,-12997
13.825165,-174,-1374,-13147
13.840790,-77,-1281,-13024
13.856415,-15,-1257,-13131
13.872040,-58,-1318,-13292
13.887665,-84,-1341,-13072
13.903290,-84,-1325,-12888
13.918915,-163,-1366,-13088
13.934540,-217,-1354,-13106
13.950165,-136,-1286,-13010
13.965790,-142,-1340,-13213
13.981415,-154,-1372,-13131
13.997040,-97,-1341,-12935
14.012665,-168,-1361,-13131
14.028290,-202,-1325,-13113
14.043915,-109,-1282,-12974
14.059540,-122,-1336,-13128
14.075165,-152,-1293,-13106
14.090790,-129,-1224,-13076
14.106415,-142,-1311,-13201
14.122040,-109,-1372,-13092
14.137665,-158,-1350,-12970
14.153412,-259,-1309,-12972
14.169037,-204,-1282,-13060
14.184662,-156,-1286,-13215
14.200287,-195,-1249,-13158
14.215912,-165,-1256,-13044
14.231537,-127,-1359,-13088
14.247162,-115,-1406,-13085
14.262787,-118,-1338,-13078
14.278412,-193,-1265,-13101
14.294037,-193,-1266,-13085
14.309662,-192,-1313,-13158
14.325287,-249,-1284,-13047
14.340912,-209,-1256,-12978
14.356537,-204,-1365,-13258
14.372162,-186,-1368,-13070
14.387787,-111,-1256,-12910
14.403412,-204,-1295,-13274
14.419037,-184,-1277,-13072
14.434662,-83,-1234,-13010
14.450287,-259,-1332,-13322
14.465912,-256,-1290,-12899
14.481537,-181,-1238,-12858
14.497162,-317,-1286,-13244
14.512787,-190,-1250,-13065
14.528412,-77,-1324,-13170
14.544037,-152,-1390,-13265
14.559662,-131,-1307,-12986
14.575287,-218,-1309,-13019
14.590912,-249,-1284,-13063
14.606537,-183,-1265,-13135
14.622162,-227,-1313,-13140
14.637787,-156,-1290,-12978
14.653412,-156,-1354,-13208
14.669037,-213,-1370,-13124
14.684662,-115,-1282,-12887
14.700287,-208,-1356,-13231
14.715912,-238,-1329,-13081
14.731537,-93,-1231,-12894
14.747162,-158,-1300,-13281
14.762787,-154,-1281,-13149
14.778412,-120,-1256,-12992
14.794037,-211,-1352,-13156
14.809662,-170,-1370,-13011
14.825287,-136,-1350,-12969
14.840912,-142,-1350,-13106
14.856537,-106,-1327,-13179
14.872162,-133,-1316,-13154
14.887787,-118,-1295,-13006
14.903412,-124,-1304,-13078
14.919037,-167,-1341,-13128
14.934662,-124,-1322,-12992
14.950287,-133,-1340,-13124
14.965912,-145,-1374,-13163
14.981537,-86,-1336,-13001
14.997162,-95,-1350,-13142
15.012787,-149,-1357,-13178
15.028412,-149,-1306,-12969
15.044037,-149,-1343,-13033
15.059662,-134,-1372,-13129
15.075287,-97,-1302,-13094
15.090912,-115,-1282,-13151
15.106537,-143,-1307,-13149
15.122162,-147,-1322,-13054
15.137787,-158,-1338,-12988
15.153290,-174,-1343,-13033
15.168915,-154,-1354,-13147
15.184540,-111,-1340,-13120
15.200165,-90,-1352,-13122
15.215790,-106,-1357,-13149
15.231415,-186,-1261,-13008
15.247040,-209,-1282,-13053
15.262665,-167,-1368,-13160
15.278290,-184,-1286,-13038
15.293915,-184,-1270,-13063
15.309540,-145,-1341,-13145
15.325165,-106,-1349,-13092
15.340790,-113,-1365,-13135
15.356415,-193,-1309,-13065
15.372040,-224,-1241,-12978
15.387665,-174,-1336,-13135
15.403290,-124,-1352,-13129
15.418915,-149,-1259,-13083
15.434540,-161,-1320,-13181
15.450165,-129,-1343,-13081
15.465790,-229,-1256,-12999
15.481415,-265,-1302,-13056
15.497040,-133,-1365,-13058
15.512665,-177,-1291,-13108
15.528290,-222,-1263,-13165
15.543915,-122,-1327,-13117
15.559540,-149,-1325,-13063
15.575165,-215,-1282,-13081
15.590790,-229,-1288,-13081
15.606415,-217,-1290,-13033
15.622040,-188,-1282,-13090
15.637665,-193,-1300,-13160
15.653290,-183,-1302,-13078
15.668915,-165,-1316,-13088
15.684540,-188,-1345,-13124
15.700165,-197,-1306,-13015
15.715790,-197,-1288,-13051
15.731415,-188,-1297,-13128
15.747040,-152,-1261,-13085
15.762665,-159,-1266,-13140
15.778290,-195,-1306,-13145
15.793915,-181,-1290,-13020
15.809540,-179,-1302,-13051
15.825165,-195,-1352,-13097
15.840790,-165,-1332,-13086
15.856415,-170,-1318,-13126
15.872040,-149,-1329,-13072
15.887665,-125,-1313,-13067
15.903290,-175,-1313,-13129
15.918915,-177,-1315,-13042
15.934540,-167,-1318,-13053
15.950165,-183,-1336,-13135
15.965790,-150,-1316,-13047
15.981415,-129,-1304,-13086
15.997040,-163,-1334,-13186
16.012665,-149,-1313,-13029
16.028290,-129,-1307,-13022
16.043915,-179,-1365,-13144
16.059540,-147,-1318,-13029
16.075165,-109,-1279,-13086
16.090790,-138,-1334,-13188
16.106415,-106,-1324,-13060
16.122040,-129,-1318,-13045
16.137665,-170,-1332,-13063
16.153290,-167,-1327,-13070
16.168915,-172,-1349,-13083
16.184540,-120,-1343,-13074
16.200165,-147,-1311,-13142
16.215790,-184,-1288,-13063
16.231415,-70,-1324,-13047
16.247040,-120,-1343,-13174
16.262665,-199,-1275,-12997
16.278290,-84,-1306,-12997
16.293915,-104,-1395,-13254
16.309540,-154,-1286,-13028
16.325165,-134,-1227,-12994
16.340790,-179,-1379,-13292
16.356415,-172,-1320,-13015
16.372040,-163,-1227,-12908
16.387665,-174,-1361,-13210
16.403290,-136,-1350,-13108
16.418915,-134,-1300,-13038
16.434540,-168,-1322,-13136
16.450165,-195,-1274,-13069
16.465790,-159,-1331,-13079
16.481415,-131,-1365,-13049
16.497040,-206,-1275,-13022
16.512665,-220,-1297,-13131
16.528290,-161,-1340,-13006
16.543915,-159,-1299,-12976
16.559540,-190,-1266,-13276
16.575165,-247,-1199,-13313
16.590790,-249,-1200,-13119
16.606415,-152,-1357,-13011
16.622040,-152,-1372,-12899
16.637665,-242,-1241,-12951
16.653290,-250,-1263,-13226
16.668915,-225,-1309,-13249
16.684540,-222,-1259,-13026
16.700165,-247,-1270,-12992
16.715790,-300,-1284,-13117
16.731415,-279,-1232,-13185
16.747040,-188,-1254,-13210
16.762665,-93,-1379,-13101
16.778290,23,-1449,-12851
16.793915,99,-1440,-12953
16.809540,67,-1413,-13319
16.825165,14,-1350,-13256
16.840790,-47,-1354,-13004
16.856415,-134,-1415,-12917
16.872040,-122,-1386,-12913
16.887665,-70,-1375,-13115
16.903290,-4,-1400,-13194
16.918915,153,-1454,-13056
16.934540,233,-1561,-13017
16.950165,273,-1550,-13013
16.965790,303,-1516,-13128
16.981415,266,-1566,-13128
16.997040,319,-1574,-12974
17.012665,396,-1613,-13067
17.028290,524,-1756,-13081
17.043915,1040,-1979,-13026
17.059540,1760,-2306,-13101
17.075165,2474,-2593,-12926
17.090790,3237,-2759,-12803
17.106415,3849,-2925,-12988
17.122040,4581,-2879,-12920
17.137665,5060,-2420,-12892
17.153290,4553,-1665,-13326
17.168915,3876,-781,-13528
17.184540,3140,26,-13338
17.200165,1967,633,-13033
17.215790,1071,1078,-12845
17.231415,337,1537,-13160
17.247040,-690,1937,-13378
17.262665,-1854,2149,-13061
17.278290,-2982,2355,-13128
17.293915,-4191,2555,-13861
17.309540,-5909,3035,-14510
17.325165,-6943,2894,-14390
17.340790,-7903,2472,-13581
17.356415,-9933,4120,-13497
17.372040,-8492,3842,-13460
17.387665,-6116,2208,-12008
17.403290,-7573,3574,-10606
17.418915,-6489,4126,-10871
17.434540,-3545,3938,-13754
17.450165,-3088,4733,-16372
17.465790,-1279,4545,-15645
17.481415,1542,3106,-13520
17.497040,3437,1555,-12072
17.512665,6343,-436,-12919
17.528290,8806,-2568,-13922
17.543915,8152,-3006,-12553
17.559540,5776,-2563,-12315
17.575165,3842,-2577,-13390
17.590790,2165,-2248,-12344
17.606415,1187,-1929,-11430
17.622040,1628,-2529,-12763
17.637665,2994,-3113,-13113
17.653290,4788,-3645,-12963
17.668915,6038,-3948,-14140
17.684540,5015,-2882,-14349
17.700165,1872,-1649,-14079
17.715790,-483,-1122,-13269
17.731415,-1693,-838,-11315
17.747040,-2498,-916,-10865
17.762665,-2122,-975,-12147
17.778290,-868,-879,-13729
17.793915,258,-954,-14686
17.809540,883,-1191,-14463
17.825165,817,-1479,-13695
17.840790,-17,-1574,-12776
17.856415,-931,-1366,-11762
17.872040,-1363,-1093,-11904
17.887665,-1316,-904,-13165
17.903290,-727,-754,-13745
17.918915,48,-849,-13886
17.934540,303,-1236,-13895
17.950165,224,-1420,-12888
17.965790,-33,-1443,-12378
17.981415,-522,-1513,-12763
17.997040,-572,-1386,-12681
18.012665,-279,-1257,-13124
18.028290,-70,-1288,-13838
18.043915,203,-1341,-13490
18.059540,262,-1482,-12954
18.075165,78,-1618,-12674
18.090790,-34,-1588,-12490
18.106415,-61,-1447,-12747
18.122040,23,-1241,-13328
18.137665,78,-1127,-13786
18.153412,-15,-1136,-13576
18.169037,-188,-1206,-13136
18.184662,-456,-1418,-12842
18.200287,-599,-1490,-12263
18.215912,-533,-1363,-12553
18.231537,-424,-1263,-13535
18.247162,-84,-1134,-13635
18.262787,146,-1184,-13501
18.278412,-8,-1327,-13197
18.294037,-145,-1297,-12622
18.309662,-386,-1291,-12804
18.325287,-567,-1291,-13040
18.340912,-336,-1232,-12917
18.356537,-138,-1302,-13222
18.372162,-70,-1327,-13381
18.387787,-25,-1225,-13295
18.403412,-267,-1266,-13338
18.419037,-465,-1345,-12854
18.434662,-422,-1379,-12460
18.450287,-320,-1422,-12783
18.465912,-75,-1315,-13222
18.481537,41,-1122,-13601
18.497162,-2,-1093,-13586
18.512787,-34,-1290,-13169
18.528412,-242,-1454,-12708
18.544037,-402,-1402,-12474
18.559662,-406,-1329,-12931
18.575287,-354,-1297,-13408
18.590912,-40,-1290,-13308
18.606537,148,-1350,-13290
18.622162,-33,-1331,-13208
18.637787,-124,-1281,-12892
18.653412,-170,-1374,-12944
18.669037,-258,-1418,-13006
18.684662,-140,-1379,-12851
18.700287,1,-1356,-13060
18.715912,-15,-1288,-13422
18.731537,5,-1300,-13442
18.747162,-38,-1388,-13145
18.762787,-218,-1395,-12754
18.778412,-293,-1434,-12645
18.794037,-183,-1431,-12844
18.809662,-29,-1286,-13244
18.825287,41,-1284,-13611
18.840912,108,-1332,-13299
18.856537,69,-1315,-12912
18.872162,-192,-1406,-12935
18.887787,-231,-1436,-12774
18.903412,-117,-1390,-12961
18.919037,-138,-1390,-13310
18.934662,21,-1363,-13099
18.950287,101,-1349,-13153
18.965912,-47,-1366,-13317
18.981537,-77,-1338,-13058
18.997162,-172,-1363,-12917
19.012787,-217,-1416,-12844
19.028412,-84,-1415,-12915
19.044037,-38,-1381,-13208
19.059662,28,-1274,-13336
19.075287,3,-1275,-13401
19.090912,-138,-1370,-13113
19.106537,-149,-1375,-12703
19.122162,-208,-1411,-12872
19.137787,-242,-1375,-13042
19.153290,-113,-1268,-13160
19.168915,-70,-1309,-13420
19.184540,-42,-1329,-13149
19.200165,-40,-1302,-12910
19.215790,-224,-1377,-13085
19.231415,-275,-1329,-12945
19.247040,-217,-1281,-12961
19.262665,-211,-1372,-13179
19.278290,-86,-1311,-13061
19.293915,-45,-1254,-13197
19.309540,-145,-1311,-13335
19.325165,-174,-1291,-13017
19.340790,-243,-1331,-12908
19.356415,-299,-1382,-12945
19.372040,-218,-1309,-12944
19.387665,-179,-1257,-13235
19.403290,-179,-1241,-13367
19.418915,-142,-1247,-13133
19.434540,-192,-1318,-13003
19.450165,-267,-1352,-12935
19.465790,-261,-1329,-12960
19.481415,-252,-1316,-13133
19.497040,-193,-1295,-13178
19.512665,-145,-1297,-13142
19.528290,-150,-1295,-13083
19.543915,-154,-1299,-13110
19.559540,-249,-1302,-13133
19.575165,-279,-1261,-12969
19.590790,-215,-1297,-13011
19.606415,-215,-1331,-13106
19.622040,-134,-1281,-13054
19.637665,-109,-1293,-13294
19.653290,-184,-1324,-13253
19.668915,-147,-1309,-12876
19.684540,-177,-1388,-12997
19.700165,-233,-1386,-13042
19.715790,-138,-1275,-12979
19.731415,-140,-1281,-13304
19.747040,-142,-1302,-13247
19.762665,-81,-1293,-12940
19.778290,-183,-1357,-13010
19.793915,-195,-1395,-13070
19.809540,-175,-1345,-13063
19.825165,-170,-1340,-13061
19.840790,-70,-1345,-13086
19.856415,-83,-1340,-13185
19.872040,-84,-1291,-13067
19.887665,-77,-1286,-13106
19.903290,-188,-1365,-13169
19.918915,-172,-1336,-12879
19.934540,-83,-1374,-12972
19.950165,-120,-1400,-13197
19.965790,-43,-1304,-13117
19.981415,-2,-1320,-13222
19.997040,-115,-1384,-13153
20.012665,-68,-1381,-12872
20.028290,-131,-1375,-12997
20.043915,-206,-1395,-13094
20.059540,-74,-1350,-13111
20.075165,-108,-1347,-13194
20.090790,-161,-1495,-12735
20.106415,71,-1636,-12479
20.122040,323,-1582,-13122
20.137665,491,-1397,-13738
20.153290,537,-1374,-13767
20.168915,503,-1468,-13281
20.184540,496,-1515,-12899
20.200165,257,-1570,-12929
20.215790,-24,-1534,-12658
20.231415,-97,-1459,-12608
20.247040,-86,-1440,-13154
20.262665,232,-1413,-13410
20.278290,844,-1536,-13497
20.293915,1017,-1665,-13326
20.309540,624,-1575,-13128
20.325165,369,-1572,-13172
20.340790,383,-1686,-12479
20.356415,408,-1709,-12142
20.372040,526,-1657,-13176
20.387665,1190,-1675,-13858
20.403290,2017,-1893,-13611
20.418915,2492,-2170,-13369
20.434540,3003,-2452,-13115
20.450165,3221,-2368,-12694
20.465790,3163,-1877,-12404
20.481415,3154,-1618,-12576
20.497040,3083,-1379,-13011
20.512665,2953,-843,-12687
20.528290,2913,-495,-12483
20.543915,3124,-150,-13403
20.559540,2974,507,-14045
20.575165,2699,907,-14035
20.590790,2610,1126,-13631
20.606415,2519,1298,-13013
20.622040,2615,1481,-13286
20.637665,2742,1748,-13563
20.653290,2819,1744,-12878
20.668915,2962,1890,-13190
20.684540,3196,2335,-13654
20.700165,3290,2594,-13099
20.715790,3097,2926,-13306
20.731415,3397,3019,-13054
20.747040,4242,2876,-12515
20.762665,4467,3551,-14131
20.778290,4401,4445,-15513
20.793915,4386,4761,-14792
20.809540,4040,4945,-13767
20.825165,3978,5008,-13586
20.840790,4449,5094,-13752
20.856415,4345,5219,-12401
20.872040,3728,5390,-11519
20.887665,3513,5985,-14081
20.903290,3335,6274,-14984
20.918915,3138,5911,-12297
20.934540,3442,5354,-12124
20.950165,4119,5349,-14154
20.965790,4024,6417,-15115
20.981415,3563,6552,-14645
20.997040,3820,5169,-11808
21.012665,4254,5065,-11503
21.028290,5360,6179,-15251
21.043915,6434,6372,-15883
21.059540,6543,6122,-14506
21.075165,6983,6463,-14383
21.090790,6665,7602,-13767
21.106415,5104,7529,-12701
21.122040,4524,6726,-10844
21.137665,4672,7259,-10994
21.153290,4745,7545,-14247
21.168915,5011,8177,-15338
21.184540,5090,8472,-15667
21.200165,4931,7600,-15845
21.215790,4699,7472,-12812
21.231415,4435,7027,-11904
21.247040,4254,6308,-13142
21.262665,4581,7124,-12758
21.278290,4813,7665,-14661
21.293915,4654,7502,-16283
21.309540,4849,7672,-14511
21.325165,4585,7102,-13501
21.340790,4072,6602,-12762
21.356415,4070,6975,-12297
21.372040,3840,7111,-14024
21.387665,3906,7133,-15129
21.403290,4308,7195,-14483
21.418915,4424,6915,-13528
21.434540,4458,6817,-13172
21.450165,4062,7081,-13692
21.465790,3699,7270,-13988
21.481415,3649,7354,-14285
21.497040,3556,7270,-14406
21.512665,3956,6858,-13581
21.528290,4270,6722,-13428
21.543915,4081,6918,-13597
21.559540,3983,7067,-13349
21.575165,3770,7434,-14035
21.590790,3685,7516,-14715
21.606415,3983,7238,-14495
21.622040,4176,7081,-14001
21.637665,4147,6911,-13319
21.653290,4010,7004,-13053
21.668915,3801,7195,-13547
21.684540,3787,7183,-14270
21.700165,4115,7138,-14468
21.715790,4342,7000,-14081
21.731415,4381,6942,-13922
21.747040,4276,7025,-13829
21.762665,3915,7033,-13606
21.778290,3840,6917,-13624
21.793915,4053,6724,-13522
21.809540,4278,6588,-13704
21.825165,4561,6551,-14426
21.840790,4528,6620,-14449
21.856415,4222,6692,-13695
21.872040,4006,6583,-13254
21.887665,3904,6493,-13370
21.903290,4013,6470,-13760
21.918915,4285,6263,-14301
21.934540,4370,6079,-14352
21.950165,4185,6142,-13542
21.965790,3978,6076,-13188
21.981415,3860,5904,-13576
21.997040,3822,6090,-13726
22.012665,3928,6099,-14090
22.028290,4099,5799,-14274
22.043915,4044,5817,-13667
22.059540,3772,5826,-13376
22.075165,3558,5715,-13526
22.090790,3533,5679,-13631
22.106415,3697,5583,-13758
22.122040,3804,5656,-13938
22.137665,3654,5822,-14120
22.153290,3476,5708,-13924
22.168915,3349,5536,-13479
22.184540,3206,5472,-13319
22.200165,3296,5458,-13408
22.215790,3408,5565,-13945
22.231415,3335,5599,-14395
22.247040,3396,5515,-13792
22.262665,3290,5531,-13178
22.278290,3047,5574,-13335
22.293915,3147,5574,-13733
22.309540,3178,5697,-14242
22.325165,3081,5758,-14206
22.340790,3151,5611,-13524
22.356415,3142,5542,-13231
22.372040,3119,5551,-13397
22.387665,3158,5640,-13745
22.403290,3121,5792,-14133
22.418915,3124,5783,-14192
22.434540,3178,5715,-13899
22.450165,3178,5597,-13485
22.465790,3194,5524,-13328
22.481415,3226,5599,-13470
22.497040,3235,5654,-13747
22.512665,3313,5754,-14152
22.528290,3379,5758,-14167
22.543915,3362,5574,-13727
22.559540,3365,5492,-13478
22.575165,3319,5506,-13469
22.590790,3247,5533,-13604
22.606415,3278,5519,-13869
22.622040,3387,5431,-13901
22.637665,3481,5302,-13676
22.653290,3506,5210,-13665
22.668915,3517,5211,-13781
22.684540,3422,5260,-13663
22.700165,3313,5210,-13599
22.715790,3372,5070,-13635
22.731415,3424,4979,-13579
22.747040,3490,4888,-13697
22.762665,3537,4849,-13817
22.778290,3396,4895,-13652
22.793915,3276,4853,-13536
22.809540,3267,4772,-13649
22.825165,3247,4715,-13729
22.840790,3265,4624,-13629
22.856415,3269,4524,-13606
22.872040,3222,4445,-13619
22.887665,3153,4463,-13453
22.903290,3040,4483,-13544
22.918915,3006,4394,-13799
22.934540,3049,4378,-13699
22.950165,3028,4397,-13645
22.965790,2988,4279,-13681
22.981415,2888,4267,-13513
22.997040,2730,4270,-13495
23.012665,2755,4145,-13552
23.028290,2785,4145,-13577
23.043915,2708,4204,-13656
23.059540,2746,4183,-13736
23.075165,2685,4108,-13769
23.090790,2463,4119,-13461
23.106415,2465,4144,-13270
23.122040,2531,4076,-13594
23.137665,2458,4147,-13747
23.153290,2492,4199,-13711
23.168915,2510,4053,-13676
23.184540,2447,4058,-13378
23.200165,2374,4217,-13329
23.215790,2315,4206,-13711
23.231415,2390,4151,-13842
23.247040,2355,4260,-13692
23.262665,2280,4267,-13510
23.278290,2374,4120,-13365
23.293915,2356,4140,-13458
23.309540,2333,4229,-13660
23.325165,2417,4220,-13788
23.340790,2362,4267,-13754
23.356415,2322,4292,-13583
23.372040,2442,4169,-13501
23.387665,2462,4142,-13447
23.403290,2401,4267,-13463
23.418915,2439,4294,-13665
23.434540,2510,4233,-13783
23.450165,2494,4263,-13706
23.465790,2478,4251,-13613
23.481415,2562,4106,-13501
23.497040,2547,4097,-13419
23.512665,2490,4138,-13569
23.528290,2569,4085,-13722
23.543915,2606,4074,-13649
23.559540,2637,3994,-13560
23.575165,2717,3915,-13552
23.590790,2687,3953,-13586
23.606415,2624,3924,-13624
23.622040,2606,3856,-13536
23.637665,2581,3808,-13467
23.653290,2651,3712,-13504
23.668915,2733,3676,-13545
23.684540,2683,3681,-13681
23.700165,2653,3624,-13647
23.715790,2613,3583,-13372
23.731415,2562,3519,-13378
23.747040,2594,3431,-13551
23.762665,2628,3360,-13610
23.778290,2637,3317,-13619
23.793915,2583,3283,-13531
23.809540,2485,3190,-13413
23.825165,2446,3160,-13313
23.840790,2419,3183,-13431
23.856415,2383,3122,-13688
23.872040,2439,3079,-13556
23.887665,2399,3067,-13410
23.903290,2256,2955,-13531
23.918915,2269,2897,-13381
23.934540,2264,2935,-13360
23.950165,2199,2881,-13676
23.965790,2219,2858,-13606
23.981415,2192,2878,-13420
23.997040,2092,2797,-13492
24.012665,2017,2747,-13429
24.028290,1967,2763,-13294
24.043915,1981,2717,-13404
24.059540,1965,2680,-13611
24.075165,1933,2740,-13535
24.090790,1951,2765,-13419
24.106415,1821,2678,-13515
24.122040,1728,2633,-13340
24.137665,1780,2715,-13238
24.153290,1701,2747,-13617
24.168915,1683,2665,-13615
24.184540,1805,2640,-13320
24.200165,1698,2667,-13426
24.215790,1623,2665,-13424
24.231415,1660,2753,-13336
24.247040,1556,2780,-13581
24.262665,1553,2737,-13567
24.278290,1590,2780,-13361
24.293915,1606,2703,-13401
24.309540,1633,2690,-13404
24.325165,1589,2806,-13395
24.340790,1564,2817,-13483
24.356415,1558,2817,-13558
24.372040,1528,2831,-13540
24.387665,1542,2806,-13451
24.403290,1623,2760,-13447
24.418915,1673,2699,-13383
24.434540,1664,2728,-13363
24.450165,1612,2847,-13526
24.465790,1621,2830,-13545
24.481415,1683,2803,-13517
24.497040,1728,2815,-13517
24.512665,1721,2783,-13379
24.528290,1673,2790,-13349
24.543915,1715,2760,-13469
24.559540,1760,2738,-13508
24.575165,1798,2726,-13499
24.590790,1805,2717,-13533
24.606415,1785,2724,-13510
24.622040,1790,2701,-13424
24.637665,1781,2622,-13403
24.653290,1787,2576,-13363
24.668915,1819,2590,-13408
24.684540,1908,2547,-13536
24.700165,1892,2528,-13561
24.715790,1887,2488,-13533
24.731415,1908,2444,-13392
24.747040,1828,2456,-13281
24.762665,1880,2389,-13369
24.778290,1921,2365,-13478
24.793915,1885,2353,-13570
24.809540,1946,2244,-13476
24.825165,1924,2187,-13297
24.840790,1864,2146,-13342
24.856415,1874,2121,-13342
24.872040,1858,2115,-13428
24.887665,1821,2067,-13595
24.903290,1812,2024,-13417
24.918915,1858,1919,-13322
24.934540,1833,1853,-13354
24.950165,1735,1896,-13254
24.965790,1776,1865,-13406
24.981415,1769,1831,-13556
24.997040,1653,1814,-13429
25.012665,1690,1687,-13353
25.028290,1680,1646,-13254
25.043915,1558,1671,-13229
25.059540,1614,1589,-13358
25.075165,1648,1596,-13370
25.090790,1506,1614,-13453
25.106415,1481,1540,-13476
25.122040,1526,1524,-13297
25.137665,1428,1473,-13301
25.153290,1380,1396,-13306
25.168915,1440,1405,-13231
25.184540,1390,1421,-13401
25.200165,1299,1401,-13497
25.215790,1321,1369,-13349
25.231415,1315,1330,-13283
25.247040,1215,1299,-13242
25.262665,1151,1330,-13247
25.278290,1160,1335,-13419
25.293915,1164,1281,-13431
25.309540,1098,1298,-13258
25.325165,1108,1269,-13263
25.340790,1140,1233,-13340
25.356415,1001,1299,-13345
25.372040,990,1264,-13361
25.387665,1021,1248,-13317
25.403290,890,1303,-13249
25.418915,923,1274,-13267
25.434540,1032,1224,-13435
25.450165,978,1240,-13474
25.465790,878,1315,-13242
25.481415,853,1289,-13228
25.497040,862,1244,-13336
25.512665,885,1308,-13313
25.528290,857,1346,-13428
25.543915,821,1312,-13406
25.559540,860,1317,-13190
25.575165,814,1369,-13260
25.590790,778,1349,-13381
25.606415,819,1365,-13381
25.622040,849,1378,-13401
25.637665,846,1337,-13319
25.653290,785,1367,-13245
25.668915,812,1342,-13258
25.684540,880,1319,-13365
25.700165,855,1378,-13460
25.715790,807,1424,-13386
25.731415,855,1401,-13360
25.747040,896,1376,-13308
25.762665,860,1403,-13226
25.778290,885,1373,-13313
25.793915,935,1340,-13394
25.809540,957,1380,-13370
25.825165,924,1419,-13369
25.840790,903,1403,-13361
25.856415,955,1351,-13283
25.872040,939,1349,-13288
25.887665,923,1358,-13351
25.903290,987,1342,-13349
25.918915,1019,1344,-13390
25.934540,1008,1333,-13401
25.950165,1014,1290,-13301
25.965790,1039,1258,-13290
25.981415,1042,1267,-13331
25.997040,1048,1269,-13333
26.012665,1062,1224,-13329
26.028290,1076,1180,-13304
26.043915,1137,1165,-13319
26.059540,1142,1165,-13342
26.075165,1058,1153,-13354
26.090790,1098,1124,-13353
26.106415,1133,1101,-13254
26.122040,1101,1053,-13276
26.137665,1130,1021,-13340
26.153290,1115,1015,-13285
26.168915,1162,949,-13358
26.184540,1198,921,-13326
26.200165,1105,944,-13181
26.215790,1123,882,-13288
26.231415,1165,832,-13315
26.247040,1124,853,-13260
26.262665,1132,828,-13369
26.278290,1137,783,-13324
26.293915,1119,737,-13186
26.309540,1119,669,-13222
26.325165,1090,682,-13288
26.340790,1062,698,-13329
26.356415,1094,633,-13329
26.372040,1107,576,-13270
26.387665,1044,548,-13233
26.403290,998,541,-13192
26.418915,1010,510,-13256
26.434540,1044,432,-13360
26.450165,1039,421,-13267
26.465790,974,419,-13279
26.481415,955,321,-13324
26.497040,957,321,-13103
26.512665,940,341,-13145
26.528290,912,260,-13378
26.543915,894,280,-13279
26.559540,910,276,-13258
26.575165,873,185,-13306
26.590790,848,192,-13126
26.606415,798,169,-13181
26.622040,780,85,-13320
26.637665,815,103,-13256
26.653290,755,128,-13256
26.668915,735,89,-13258
26.684540,724,51,-13228
26.700165,671,16,-13170
26.715790,676,24,-13103
26.731415,651,5,-13229
26.747040,608,-8,-13265
26.762665,617,35,-13192
26.778290,601,-43,-13294
26.793915,566,-100,-13215
26.809540,582,-56,-13104
26.825165,505,-70,-13219
26.840790,403,-54,-13163
26.856415,478,-47,-13165
26.872040,489,-117,-13286
26.887665,462,-122,-13176
26.903290,448,-84,-13183
26.918915,346,-115,-13286
26.934540,399,-177,-13194
26.950165,394,-161,-13147
26.965790,305,-125,-13154
26.981415,360,-131,-13215
26.997040,289,-133,-13283
27.012665,260,-140,-13186
27.028290,299,-142,-13190
27.043915,201,-143,-13197
27.059540,267,-154,-13063
27.075165,246,-152,-13208
27.090790,126,-149,-13336
27.106415,267,-149,-13147
27.122040,230,-138,-13145
27.137665,117,-154,-13217
27.153412,203,-127,-13160
27.169037,117,-67,-13244
27.184662,89,-129,-13267
27.200287,171,-156,-13142
27.215912,117,-125,-13133
27.231537,148,-142,-13190
27.247162,121,-109,-13210
27.262787,48,-92,-13220
27.278412,103,-104,-13219
27.294037,69,-84,-13190
27.309662,80,-125,-13156
27.325287,135,-120,-13208
27.340912,24,-24,-13238
27.356537,41,-61,-13185
27.372162,96,-99,-13199
27.387787,30,-68,-13178
27.403412,107,-99,-13169
27.419037,105,-45,-13236
27.434662,10,-8,-13211
27.450287,96,-81,-13197
27.465912,87,-27,-13204
27.481537,-29,14,-13161
27.497162,87,-88,-13188
27.512787,124,-47,-13233
27.528412,-17,41,-13195
27.544037,66,-40,-13192
27.559662,126,-65,-13242
27.575287,-2,26,-13217
27.590912,85,-29,-13181
27.606537,196,-83,-13197
27.622162,39,30,-13203
27.637787,58,-15,-13194
27.653412,166,-72,-13211
27.669037,51,37,-13236
27.684662,73,16,-13190
27.700287,212,-83,-13178
27.715912,133,-2,-13228
27.731537,48,39,-13217
27.747162,208,-93,-13201
27.762787,158,-15,-13208
27.778412,-13,67,-13226
27.794037,189,-106,-13156
27.809662,214,-93,-13126
27.825287,16,80,-13353
27.840912,173,23,-13240
27.856537,296,-95,-13088
27.872162,257,-42,-13386
27.887787,241,-136,-13138
27.903412,239,-277,-12944
27.919037,285,-158,-13320
27.934662,173,-90,-13183
27.950287,180,-83,-13079
27.965912,314,-20,-13390
27.981537,266,23,-13267
27.997162,233,8,-13069
28.012787,376,-158,-13261
28.028412,392,-175,-13242
28.044037,203,-102,-13063
28.059662,228,-213,-13229
28.075287,348,-295,-13251
28.090912,242,-263,-13029
28.106537,173,-186,-13194
28.122162,351,-195,-13295
28.137787,351,-179,-13103
28.153290,244,-93,-13258
28.168915,346,-190,-13324
28.184540,414,-318,-13079
28.200165,423,-320,-13135
28.215790,349,-292,-13278
28.231415,283,-308,-13174
28.247040,366,-392,-13097
28.262665,378,-397,-13208
28.278290,274,-309,-13215
28.293915,258,-283,-13119
28.309540,328,-309,-13233
28.325165,376,-322,-13244
28.340790,357,-331,-13069
28.356415,308,-370,-13174
28.372040,392,-459,-13245
28.387665,469,-499,-13083
28.403290,408,-483,-13203
28.418915,364,-488,-13283
28.434540,330,-492,-13063
28.450165,332,-492,-13101
28.465790,369,-484,-13228
28.481415,324,-443,-13129
28.497040,287,-433,-13128
28.512665,408,-543,-13197
28.528290,501,-649,-13092
28.543915,424,-654,-13103
28.559540,382,-684,-13224
28.575165,376,-672,-13117
28.590790,317,-581,-13111
28.606415,316,-550,-13199
28.622040,358,-552,-13133
28.637665,312,-547,-13174
28.653290,253,-584,-13190
28.668915,346,-699,-13128
28.684540,426,-793,-13131
28.700165,341,-770,-13104
28.715790,305,-772,-13156
28.731415,378,-783,-13111
28.747040,339,-697,-13081
28.762665,342,-747,-13304
28.778290,424,-788,-13108
28.793915,332,-718,-12976
28.809540,251,-797,-13335
28.825165,248,-806,-13095
28.840790,249,-775,-12920
28.856415,305,-893,-13324
28.872040,319,-881,-13151
28.887665,301,-824,-12967
28.903290,366,-909,-13244
28.918915,391,-916,-13140
28.934540,276,-852,-12999
28.950165,264,-909,-13201
28.965790,321,-940,-13224
28.981415,233,-861,-13028
28.997040,155,-856,-13058
29.012665,210,-959,-13211
29.028290,274,-965,-13056
29.043915,273,-934,-13063
29.059540,299,-1018,-13281
29.075165,271,-981,-13079
29.090790,233,-977,-13031
29.106415,291,-1079,-13188
29.122040,246,-999,-13049
29.137665,142,-981,-13144
29.153290,176,-1065,-13240
29.168915,219,-1025,-13040
29.184540,178,-1033,-13104
29.200165,157,-1045,-13147
29.215790,180,-1016,-13060
29.231415,241,-1095,-13133
29.247040,228,-1086,-13129
29.262665,196,-1090,-13140
29.278290,233,-1152,-13097
29.293915,196,-1141,-13035
29.309540,169,-1177,-13131
29.325165,149,-1104,-13058
29.340790,133,-1045,-13067
29.356415,153,-1109,-13217
29.372040,133,-1079,-13085
29.387665,135,-1088,-13056
29.403290,126,-1181,-13176
29.418915,183,-1204,-13011
29.434540,242,-1218,-13028
29.450165,164,-1220,-13226
29.465790,110,-1154,-13088
29.481415,96,-1134,-13038
29.497040,41,-1170,-13203
29.512665,55,-1183,-13110
29.528290,112,-1166,-12976
29.543915,80,-1190,-13122
29.559540,76,-1218,-13160
29.575165,148,-1188,-13035
29.590790,171,-1206,-13113
29.606415,148,-1232,-13176
29.622040,124,-1231,-13060
29.637665,87,-1252,-13015
29.653290,58,-1257,-13104
29.668915,51,-1247,-13119
29.684540,30,-1197,-13047
29.700165,46,-1213,-13153
29.715790,82,-1266,-13161
29.731415,66,-1209,-12986
29.747040,39,-1234,-13085
29.762665,32,-1284,-13131
29.778290,33,-1231,-13026
29.793915,42,-1257,-13161
29.809540,67,-1282,-13186
29.825165,117,-1266,-13056
29.840790,139,-1311,-13085
29.856415,94,-1309,-13079
29.872040,37,-1284,-13028
29.887665,21,-1288,-13051
29.903290,16,-1281,-13111
29.918915,-2,-1272,-13161
29.934540,12,-1250,-13095
29.950165,30,-1250,-13083
29.965790,23,-1290,-13119
29.981415,14,-1274,-13020
29.997040,7,-1265,-13069
30.012665,-2,-1295,-13145
30.028290,-25,-1265,-13074
30.043915,-25,-1279,-13133
30.059540,-8,-1307,-13120
30.075165,-45,-1265,-13040
30.090790,-45,-1282,-13078
30.106415,-25,-1275,-13051
30.122040,-25,-1266,-13076
30.137665,7,-1272,-13135
30.153290,23,-1252,-13101
30.168915,32,-1309,-13094
30.184540,3,-1300,-13053
30.200165,0,-1274,-13036
30.215790,10,-1318,-13104
30.231415,0,-1293,-13101
30.247040,0,-1266,-13108
30.262665,0,-1288,-13115
30.278290,30,-1286,-13060
30.293915,30,-1324,-13099
30.309540,23,-1306,-13031
30.325165,66,-1254,-13026
30.340790,121,-1347,-13228
30.356415,85,-1304,-13078
30.372040,82,-1270,-12999
30.387665,128,-1386,-13213
30.403290,67,-1316,-13035
30.418915,96,-1300,-12954
30.434540,166,-1427,-13219
30.450165,114,-1354,-13086
30.465790,123,-1309,-12981
30.481415,164,-1393,-13183
30.497040,182,-1377,-13128
30.512665,208,-1343,-13013
30.528290,203,-1352,-13081
30.543915,228,-1381,-13117
30.559540,221,-1384,-13074
30.575165,194,-1345,-13070
30.590790,207,-1361,-13156
30.606415,201,-1377,-13095
30.622040,198,-1354,-12994
30.637665,196,-1411,-13135
30.653290,212,-1400,-13092
30.668915,255,-1324,-13003
30.684540,255,-1390,-13195
30.700165,257,-1397,-13124
30.715790,267,-1352,-13001
30.731415,233,-1404,-13145
30.747040,223,-1393,-13067
30.762665,242,-1363,-13008
30.778290,241,-1397,-13149
30.793915,255,-1379,-13124
30.809540,257,-1370,-13086
30.825165,248,-1395,-13101
30.840790,267,-1399,-13076
30.856415,248,-1399,-13061
30.872040,274,-1393,-13038
30.887665,312,-1413,-13133
30.903290,249,-1413,-13149
30.918915,271,-1357,-13028
30.934540,314,-1386,-13133
30.950165,257,-1425,-13133
30.965790,257,-1374,-12961
30.981415,260,-1397,-13108
30.997040,244,-1418,-13154
31.012665,262,-1356,-12994
31.028290,258,-1391,-13153
31.043915,264,-1420,-13158
31.059540,289,-1370,-12958
31.075165,257,-1397,-13101
31.090790,230,-1393,-13129
31.106415,226,-1361,-13056
31.122040,203,-1377,-13119
31.137665,194,-1350,-13083
31.153290,192,-1368,-13124
31.168915,189,-1386,-13070
31.184540,198,-1352,-13001
31.200165,198,-1402,-13186
31.215790,198,-1365,-13070
31.231415,199,-1299,-12995
31.247040,174,-1386,-13233
31.262665,167,-1341,-13038
31.278290,171,-1307,-12974
31.293915,128,-1393,-13199
31.309540,123,-1320,-13035
31.325165,146,-1295,-13033
31.340790,117,-1357,-13186
31.356415,99,-1320,-13067
31.372040,117,-1318,-13049
31.387665,112,-1338,-13106
31.403290,103,-1316,-13060
31.418915,137,-1338,-13088
31.434540,149,-1331,-13115
31.450165,116,-1300,-13086
31.465790,92,-1316,-13094
31.481415,89,-1304,-13083
31.497040,87,-1311,-13090
31.512665,89,-1341,-13076
31.528290,80,-1313,-13067
31.543915,94,-1327,-13126
31.559540,121,-1343,-13078
31.575165,105,-1316,-13078
31.590790,101,-1334,-13126
31.606415,107,-1315,-13040
31.622040,103,-1309,-13092
31.637665,114,-1320,-13117
31.653290,107,-1286,-13026
31.668915,94,-1332,-13140
31.684540,108,-1345,-13119
31.700165,123,-1304,-13031
31.715790,112,-1350,-13151
31.731415,123,-1343,-13063
31.747040,141,-1320,-13015
31.762665,141,-1374,-13167
31.778290,157,-1340,-13085
31.793915,183,-1318,-13038
31.809540,167,-1366,-13111
31.825165,149,-1347,-13067
31.840790,180,-1349,-13051
31.856415,185,-1347,-13078
31.872040,160,-1343,-13126
31.887665,176,-1374,-13092
31.903290,203,-1350,-13029
31.918915,205,-1388,-13160
31.934540,207,-1413,-13085
31.950165,214,-1332,-12947
31.965790,203,-1370,-13190
31.981415,212,-1397,-13133
31.997040,241,-1304,-12906
32.012665,226,-1363,-13183
32.028290,208,-1411,-13178
32.043915,244,-1329,-12915
32.059540,257,-1404,-13147
32.075165,232,-1432,-13194
32.090790,235,-1350,-12985
32.106415,248,-1381,-13095
32.122040,246,-1393,-13149
32.137665,246,-1368,-13044
32.153290,242,-1384,-13053
32.168915,244,-1390,-13122
32.184540,242,-1391,-13113
32.200165,228,-1372,-13042
32.215790,223,-1370,-13111
32.231415,221,-1395,-13153
32.247040,223,-1352,-13008
32.262665,217,-1365,-13088
32.278290,191,-1413,-13176
32.293915,217,-1363,-13006
32.309540,242,-1374,-13099
32.325165,196,-1404,-13194
32.340790,217,-1341,-13001
32.356415,219,-1350,-13083
32.372040,167,-1390,-13161
32.387665,182,-1327,-13004
32.403290,183,-1349,-13092
32.418915,183,-1379,-13140
32.434540,189,-1336,-13081
32.450165,171,-1350,-13103
32.465790,162,-1341,-13058
32.481415,155,-1359,-13099
32.497040,164,-1379,-13081
32.512665,153,-1320,-13026
32.528290,112,-1341,-13169
32.543915,135,-1356,-13095
32.559540,151,-1304,-13028
32.575165,119,-1336,-13201
32.590790,107,-1309,-13061
32.606415,110,-1275,-12997
32.622040,114,-1341,-13183
32.637665,123,-1325,-13083
32.653290,133,-1291,-13011
32.668915,119,-1325,-13147
32.684540,139,-1352,-13117
32.700165,142,-1336,-13033
32.715790,107,-1316,-13095
32.731415,99,-1331,-13129
32.747040,98,-1318,-13072
32.762665,80,-1300,-13070
32.778290,71,-1318,-13110
32.793915,121,-1341,-13094
32.809540,167,-1340,-13074
32.825165,149,-1320,-13110
32.840790,141,-1322,-13122
32.856415,157,-1332,-13079
32.872040,153,-1349,-13108
32.887665,121,-1359,-13104
32.903290,107,-1343,-13024
32.918915,128,-1361,-13099
32.934540,149,-1374,-13104
32.950165,173,-1350,-13060
32.965790,189,-1377,-13151
32.981415,203,-1343,-13061
32.997040,212,-1327,-13060
33.012665,194,-1370,-13129
33.028290,178,-1324,-13003
33.043915,173,-1366,-13131
33.059540,166,-1393,-13172
33.075165,160,-1311,-13011
33.090790,167,-1350,-13138
33.106415,180,-1359,-13104
33.122040,183,-1329,-13004
33.137665,182,-1381,-13133
33.153412,180,-1336,-13097
33.169037,166,-1325,-13076
33.184662,162,-1368,-13110
33.200287,174,-1343,-13076
33.215912,185,-1370,-13103
33.231537,210,-1366,-13044
33.247162,235,-1357,-13078
33.262787,241,-1415,-13154
33.278412,248,-1381,-13006
33.294037,258,-1366,-13061
33.309662,246,-1407,-13165
33.325287,237,-1350,-13011
33.340912,257,-1341,-13083
33.356537,266,-1391,-13178
33.372162,226,-1359,-13033
33.387787,178,-1357,-13049
33.403412,164,-1397,-13160
33.419037,142,-1395,-13049
33.434662,148,-1390,-13010
33.450287,194,-1400,-13174
33.465912,239,-1372,-13133
33.481537,266,-1345,-13001
33.497162,237,-1370,-13104
33.512787,216,-1393,-13160
33.528412,214,-1343,-12979
33.544037,214,-1313,-13028
33.559662,198,-1402,-13263
33.575287,141,-1331,-13074
33.590912,101,-1241,-12997
33.606537,108,-1390,-13249
33.622162,158,-1365,-13053
33.637787,223,-1306,-12978
33.653412,233,-1438,-13201
33.669037,242,-1377,-13042
33.684662,232,-1329,-13044
33.700287,148,-1370,-13165
33.715912,116,-1272,-13069
33.731537,137,-1300,-13131
33.747162,117,-1318,-13074
33.762787,107,-1290,-13063
33.778412,76,-1379,-13188
33.794037,71,-1350,-13010
33.809662,128,-1402,-13069
33.825287,135,-1449,-13170
33.840912,164,-1288,-12990
33.856537,210,-1290,-13131
33.872162,203,-1300,-13160
33.887787,196,-1213,-13015
33.903412,174,-1304,-13169
33.919037,144,-1356,-13111
33.934662,105,-1357,-13010
33.950287,69,-1445,-13124
33.965912,83,-1399,-13040
33.981537,107,-1347,-13033
33.997162,126,-1363,-13154
34.012787,178,-1306,-13097
34.028412,214,-1293,-13094
34.044037,205,-1309,-13108
34.059662,210,-1313,-13070
34.075287,192,-1345,-13111
34.090912,144,-1341,-13090
34.106537,137,-1350,-13061
34.122162,142,-1395,-13099
34.137787,126,-1382,-13067
34.153290,99,-1379,-13076
34.168915,119,-1399,-13095
34.184540,157,-1343,-13060
34.200165,167,-1316,-13117
34.215790,205,-1327,-13119
34.231415,257,-1307,-13044
34.247040,249,-1345,-13138
34.262665,217,-1365,-13092
34.278290,192,-1340,-12978
34.293915,157,-1409,-13169
34.309540,155,-1422,-13110
34.325165,167,-1359,-12978
34.340790,166,-1438,-13194
34.356415,185,-1422,-13081
34.372040,208,-1320,-12942
34.387665,221,-1388,-13203
34.403290,233,-1361,-13086
34.418915,235,-1261,-12953
34.434540,246,-1350,-13235
34.450165,248,-1365,-13120
34.465790,210,-1302,-12942
34.481415,176,-1397,-13153
34.497040,174,-1431,-13113
34.512665,164,-1395,-12981
34.528290,153,-1407,-13069
34.543915,182,-1418,-13163
34.559540,208,-1397,-13076
34.575165,228,-1324,-12981
34.590790,242,-1347,-13194
34.606415,233,-1334,-13124
34.622040,207,-1234,-12924
34.637665,155,-1332,-13215
34.653290,144,-1381,-13122
34.668915,192,-1322,-12899
34.684540,174,-1432,-13217
34.700165,146,-1422,-13117
34.715790,174,-1350,-12933
34.731415,176,-1425,-13176
34.747040,171,-1377,-13110
34.762665,185,-1329,-13031
34.778290,183,-1309,-13111
34.793915,185,-1277,-13131
34.809540,203,-1349,-13145
34.825165,169,-1295,-13022
34.840790,130,-1293,-13128
34.856415,123,-1406,-13183
34.872040,124,-1352,-12933
34.887665,144,-1388,-13086
34.903290,135,-1461,-13178
34.918915,160,-1363,-12931
34.934540,180,-1347,-13092
34.950165,157,-1349,-13195
34.965790,167,-1275,-13026
34.981415,158,-1286,-13111
34.997040,137,-1302,-13136
35.012665,132,-1315,-13042
35.028290,107,-1343,-13063
35.043915,126,-1352,-13104
35.059540,149,-1400,-13122
35.075165,141,-1402,-13040
35.090790,141,-1374,-13061
35.106415,141,-1381,-13142
35.122040,162,-1329,-13004
35.137665,191,-1306,-13076
35.153290,174,-1338,-13215
35.168915,171,-1293,-13024
35.184540,182,-1299,-13060
35.200165,141,-1356,-13190
35.215790,126,-1313,-12988
35.231415,146,-1332,-13028
35.247040,139,-1413,-13176
35.262665,144,-1361,-13017
35.278290,169,-1386,-13067
35.293915,178,-1457,-13154
35.309540,183,-1356,-13031
35.325165,182,-1341,-13117
35.340790,164,-1349,-13106
35.356415,158,-1274,-13038
35.372040,167,-1311,-13174
35.387665,198,-1313,-13104
35.403290,210,-1313,-13069
35.418915,203,-1395,-13145
35.434540,217,-1416,-13010
35.450165,203,-1452,-13036
35.465790,180,-1477,-13133
35.481415,194,-1424,-13036
35.497040,203,-1381,-13067
35.512665,180,-1311,-13097
35.528290,182,-1274,-13092
35.543915,210,-1325,-13165
35.559540,205,-1309,-13085
35.575165,201,-1315,-13076
35.590790,210,-1402,-13129
35.606415,196,-1400,-13026
35.622040,187,-1415,-13069
35.637665,189,-1452,-13110
35.653290,194,-1404,-13017
35.668915,217,-1391,-13129
35.684540,230,-1379,-13158
35.700165,205,-1306,-13017
35.715790,176,-1309,-13128
35.731415,173,-1334,-13160
35.747040,191,-1295,-12995
35.762665,198,-1336,-13126
35.778290,187,-1390,-13176
35.793915,201,-1357,-12983
35.809540,196,-1395,-13090
35.825165,153,-1425,-13158
35.840790,164,-1374,-12995
35.856415,189,-1379,-13053
35.872040,171,-1365,-13153
35.887665,158,-1304,-13067
35.903290,166,-1281,-13038
35.918915,173,-1311,-13172
35.934540,178,-1357,-13160
35.950165,174,-1327,-12976
35.965790,157,-1341,-13088
35.981415,141,-1399,-13156
35.997040,157,-1354,-12974
36.012665,160,-1375,-13099
36.028290,149,-1420,-13181
36.043915,185,-1349,-12999
36.059540,185,-1329,-13069
36.075165,139,-1345,-13142
36.090790,139,-1307,-13053
36.106415,151,-1297,-13085
36.122040,155,-1309,-13128
36.137665,158,-1343,-13120
36.153290,153,-1357,-13049
36.168915,167,-1370,-13047
36.184540,173,-1418,-13156
36.200165,144,-1377,-13038
36.215790,149,-1331,-13020
36.231415,148,-1374,-13199
36.247040,132,-1318,-13029
36.262665,151,-1284,-13020
36.278290,155,-1370,-13222
36.293915,151,-1325,-13029
36.309540,164,-1313,-13040
36.325165,153,-1388,-13192
36.340790,158,-1349,-13031
36.356415,173,-1349,-13049
36.372040,173,-1372,-13133
36.387665,191,-1343,-13086
36.403290,171,-1336,-13069
36.418915,137,-1325,-13056
36.434540,139,-1366,-13145
36.450165,158,-1370,-13094
36.465790,187,-1311,-12994
36.481415,185,-1368,-13176
36.497040,196,-1386,-13120
36.512665,223,-1324,-12974
36.528290,198,-1384,-13183
36.543915,187,-1393,-13122
36.559540,208,-1322,-12960
36.575165,178,-1375,-13185
36.590790,162,-1381,-13129
36.606415,198,-1320,-12945
36.622040,185,-1359,-13129
36.637665,174,-1370,-13133
36.653290,191,-1340,-13020
36.668915,169,-1363,-13131
36.684540,174,-1366,-13128
36.700165,199,-1365,-13067
36.715790,208,-1372,-13076
36.731415,214,-1345,-13065
36.747040,189,-1370,-13110
36.762665,180,-1368,-13069
36.778290,189,-1320,-13069
36.793915,176,-1374,-13174
36.809540,178,-1382,-13051
36.825165,191,-1341,-13040
36.840790,185,-1388,-13186
36.856415,194,-1345,-13028
36.872040,203,-1329,-13036
36.887665,180,-1382,-13178
36.903290,167,-1320,-13054
36.918915,182,-1340,-13090
36.934540,185,-1386,-13110
36.950165,182,-1324,-13022
36.965790,160,-1352,-13119
36.981415,151,-1363,-13076
36.997040,191,-1338,-13049
37.012665,189,-1377,-13145
37.028290,160,-1338,-13056
37.043915,173,-1345,-13099
37.059540,158,-1368,-13136
37.075165,144,-1315,-13051
37.090790,135,-1356,-13128
37.106415,123,-1352,-13074
37.122040,151,-1318,-13067
37.137665,187,-1377,-13128
37.153290,233,-1359,-13004
37.168915,253,-1352,-13108
37.184540,248,-1368,-13156
37.200165,242,-1315,-13028
37.215790,178,-1350,-13147
37.231415,116,-1361,-13081
37.247040,96,-1320,-12994
37.262665,66,-1390,-13165
37.278290,74,-1372,-13044
37.293915,124,-1338,-12999
37.309540,166,-1404,-13203
37.325165,192,-1349,-13086
37.340790,217,-1299,-13019
37.356415,226,-1341,-13165
37.372040,210,-1320,-13113
37.387665,194,-1302,-13045
37.403290,158,-1336,-13110
37.418915,116,-1354,-13124
37.434540,119,-1379,-13058
37.450165,124,-1377,-13038
37.465790,123,-1388,-13144
37.481415,146,-1399,-13074
37.497040,187,-1361,-12983
37.512665,207,-1388,-13185
37.528290,214,-1345,-13144
37.543915,248,-1277,-12990
37.559540,228,-1349,-13172
37.575165,174,-1354,-13147
37.590790,169,-1300,-12986
37.606415,146,-1363,-13129
37.622040,119,-1409,-13119
37.637665,139,-1363,-12972
37.653290,151,-1393,-13111
37.668915,171,-1429,-13165
37.684540,217,-1372,-13045
37.700165,232,-1366,-13099
37.715790,228,-1366,-13126
37.731415,210,-1311,-13047
37.747040,187,-1316,-13094
37.762665,174,-1327,-13128
37.778290,148,-1300,-13083
37.793915,144,-1350,-13099
37.809540,158,-1415,-13113
37.825165,158,-1411,-13060
37.840790,174,-1404,-13035
37.856415,207,-1422,-13095
37.872040,241,-1418,-13113
37.887665,249,-1347,-13056
37.903290,230,-1313,-13129
37.918915,199,-1347,-13163
37.934540,192,-1307,-13033
37.950165,176,-1307,-13106
37.965790,142,-1363,-13172
37.981415,146,-1356,-13040
37.997040,164,-1388,-13088
38.012665,183,-1406,-13128
38.028290,201,-1368,-13044
38.043915,210,-1393,-13101
38.059540,212,-1386,-13128
38.075165,167,-1324,-13081
38.090790,130,-1293,-13056
38.106415,148,-1284,-13101
38.122040,164,-1320,-13169
38.137665,180,-1307,-13026
38.153290,207,-1302,-13040
38.168915,212,-1406,-13220
38.184540,196,-1382,-13006
38.200165,162,-1338,-12994
38.215790,117,-1445,-13265
38.231415,141,-1409,-13017
38.247040,201,-1379,-13008
38.262665,224,-1461,-13249
38.278290,269,-1357,-12924
38.293915,337,-1375,-13054
38.309540,303,-1461,-13313
38.325165,189,-1288,-12976
38.340790,85,-1252,-13056
38.356415,-2,-1295,-13188
38.372040,-15,-1218,-12994
38.387665,39,-1261,-13115
38.403290,119,-1332,-13195
38.418915,216,-1384,-13076
38.434540,255,-1456,-13065
38.450165,248,-1470,-13061
38.465790,248,-1456,-13028
38.481415,249,-1391,-13004
38.497040,230,-1331,-13113
38.512665,157,-1299,-13195
38.528290,85,-1200,-13054
38.543915,48,-1229,-13115
38.559540,41,-1352,-13199
38.575165,91,-1306,-12945
38.590790,157,-1365,-13061
38.606415,223,-1484,-13219
38.622040,303,-1418,-12935
38.637665,349,-1416,-13058
38.653290,289,-1441,-13245
38.668915,192,-1341,-12994
38.684540,126,-1320,-13045
38.700165,58,-1324,-13219
38.715790,44,-1243,-13056
38.731415,80,-1241,-13029
38.747040,142,-1300,-13215
38.762665,208,-1350,-13147
38.778290,249,-1388,-12938
38.793915,271,-1465,-13067
38.809540,269,-1507,-13181
38.825165,246,-1415,-12954
38.840790,223,-1356,-13051
38.856415,180,-1370,-13310
38.872040,130,-1286,-13020
38.887665,101,-1224,-12986
38.903290,73,-1311,-13299
38.918915,105,-1288,-13026
38.934540,182,-1277,-12960
38.950165,219,-1443,-13306
38.965790,274,-1440,-13076
38.981415,308,-1377,-12913
38.997040,269,-1457,-13186
39.012665,230,-1429,-13103
39.028290,169,-1324,-12953
39.043915,107,-1325,-13138
39.059540,89,-1331,-13203
39.075165,85,-1281,-13020
39.090790,123,-1281,-13017
39.106415,182,-1366,-13215
39.122040,232,-1391,-13086
39.137665,280,-1365,-12935
39.153290,273,-1441,-13190
39.168915,249,-1447,-13115
39.184540,244,-1349,-12908
39.200165,173,-1399,-13208
39.215790,108,-1379,-13170
39.231415,108,-1254,-12926
39.247040,96,-1315,-13179
39.262665,91,-1340,-13179
39.278290,126,-1288,-12976
39.293915,212,-1391,-13138
39.309540,276,-1425,-13140
39.325165,258,-1379,-13015
39.340790,248,-1391,-13056
39.356415,230,-1370,-13101
39.372040,160,-1354,-13120
39.387665,99,-1297,-13038
39.403290,80,-1282,-13097
39.418915,83,-1347,-13172
39.434540,105,-1300,-12999
39.450165,158,-1304,-13085
39.465790,208,-1357,-13178
39.481415,230,-1316,-13017
39.497040,258,-1374,-13111
39.512665,248,-1413,-13113
39.528290,207,-1341,-12985
39.543915,160,-1374,-13135
39.559540,117,-1374,-13108
39.575165,98,-1302,-13044
39.590790,78,-1334,-13172
39.606415,87,-1327,-13061
39.622040,133,-1315,-13049
39.637665,176,-1384,-13174
39.653290,223,-1365,-13022
39.668915,260,-1359,-13070
39.684540,276,-1395,-13186
39.700165,258,-1340,-13033
39.715790,183,-1349,-13099
39.731415,117,-1366,-13153
39.747040,105,-1313,-13035
39.762665,92,-1338,-13103
39.778290,107,-1354,-13103
39.793915,183,-1336,-13056
39.809540,210,-1372,-13111
39.825165,223,-1361,-13079
39.840790,262,-1374,-13106
39.856415,239,-1390,-13065
39.872040,219,-1334,-13013
39.887665,199,-1350,-13170
39.903290,151,-1334,-13092
39.918915,142,-1307,-13028
39.934540,128,-1382,-13215
39.950165,107,-1354,-13063
39.965790,133,-1324,-12988
39.981415,160,-1422,-13194
39.997040,210,-1399,-13026
40.012665,246,-1359,-12988
40.028290,233,-1432,-13231
40.043915,251,-1381,-13074
40.059540,233,-1340,-13017
40.075165,171,-1381,-13190
40.090790,135,-1327,-13088
40.106415,105,-1320,-13040
40.122040,101,-1340,-13101
40.137665,133,-1350,-13115
40.153290,173,-1390,-13085
40.168915,221,-1381,-13019
40.184540,241,-1418,-13131
40.200165,230,-1427,-13110
40.215790,230,-1324,-12956
40.231415,198,-1334,-13158
40.247040,149,-1341,-13151
40.262665,149,-1247,-12960
40.278290,126,-1309,-13199
40.293915,121,-1350,-13161
40.309540,180,-1309,-12951
40.325165,182,-1393,-13154
40.340790,178,-1386,-13126
40.356415,214,-1345,-12995
40.372040,232,-1400,-13115
40.387665,233,-1374,-13106
40.403290,191,-1343,-13069
40.418915,176,-1338,-13065
40.434540,164,-1327,-13128
40.450165,103,-1340,-13154
40.465790,128,-1300,-12999
40.481415,162,-1336,-13135
40.497040,153,-1402,-13179
40.512665,199,-1343,-12920
40.528290,223,-1388,-13129
40.543915,212,-1447,-13215
40.559540,216,-1352,-12910
40.575165,189,-1356,-13106
40.590790,149,-1359,-13219
40.606415,139,-1275,-12967
40.622040,133,-1306,-13103
40.637665,130,-1345,-13199
40.653290,151,-1315,-13029
40.668915,171,-1327,-13035
40.684540,171,-1372,-13124
40.700165,187,-1395,-13117
40.715790,221,-1372,-13010
40.731415,219,-1361,-13053
40.747040,178,-1395,-13179
40.762665,160,-1338,-13029
40.778290,149,-1306,-13049
40.793915,114,-1372,-13222
40.809540,114,-1325,-13022
40.825165,139,-1293,-13011
40.840790,158,-1372,-13222
40.856415,216,-1349,-13045
40.872040,249,-1318,-13011
40.887665,230,-1381,-13210
40.903290,210,-1357,-13065
40.918915,173,-1345,-13004
40.934540,146,-1395,-13149
40.950165,141,-1366,-13106
40.965790,137,-1343,-13074
40.981415,153,-1359,-13072
40.997040,171,-1341,-13079
41.012665,196,-1356,-13156
41.028290,198,-1340,-13054
41.043915,174,-1327,-13042
41.059540,196,-1397,-13158
41.075165,203,-1356,-13036
41.090790,183,-1350,-13083
41.106415,180,-1402,-13147
41.122040,174,-1331,-13019
41.137665,153,-1365,-13144
41.153290,151,-1382,-13108
41.168915,182,-1329,-13008
41.184540,187,-1391,-13179
41.200165,196,-1354,-13051
41.215790,212,-1311,-13008
41.231415,192,-1379,-13195
41.247040,180,-1338,-13045
41.262665,164,-1313,-13054
41.278290,155,-1361,-13179
41.293915,176,-1329,-13026
41.309540,173,-1341,-13078
41.325165,167,-1375,-13147
41.340790,185,-1354,-13036
41.356415,183,-1381,-13101
41.372040,183,-1388,-13115
41.387665,187,-1361,-13047
41.403290,176,-1357,-13086
41.418915,189,-1352,-13120
41.434540,199,-1356,-13103
41.450165,176,-1343,-13063
41.465790,149,-1347,-13122
41.481415,144,-1375,-13131
41.497040,160,-1350,-12994
41.512665,167,-1370,-13088
41.528290,173,-1407,-13167
41.543915,205,-1349,-13003
41.559540,210,-1345,-13099
41.575165,182,-1365,-13206
41.590790,182,-1316,-13010
41.606415,182,-1345,-13045
41.622040,151,-1381,-13161
41.637665,135,-1320,-13011
41.653290,157,-1336,-13051
41.668915,164,-1382,-13176
41.684540,164,-1340,-13081
41.700165,185,-1349,-13063
41.715790,187,-1370,-13111
41.731415,160,-1343,-13090
41.747040,162,-1334,-13049
41.762665,176,-1345,-13083
41.778290,174,-1361,-13165
41.793915,201,-1363,-13079
41.809540,194,-1338,-13031
41.825165,153,-1365,-13156
41.840790,155,-1382,-13072
41.856415,164,-1345,-13015
41.872040,158,-1379,-13176
41.887665,167,-1359,-13088
41.903290,174,-1311,-13026
41.918915,180,-1382,-13169
41.934540,205,-1354,-13072
41.950165,196,-1318,-13061
41.965790,171,-1377,-13160
41.981415,174,-1350,-13036
41.997040,166,-1363,-13081
42.012665,139,-1382,-13144
42.028290,160,-1349,-13053
42.043915,208,-1368,-13115
42.059540,203,-1350,-13110
42.075165,201,-1352,-13079
42.090790,214,-1382,-13128
42.106415,201,-1347,-13069
42.122040,194,-1357,-13097
42.137665,173,-1363,-13128
42.153412,166,-1318,-13047
42.169037,189,-1357,-13131
42.184662,162,-1390,-13145
42.200287,157,-1354,-13038
42.215912,207,-1399,-13108
42.231537,194,-1397,-13106
42.247162,171,-1327,-13036
42.262787,191,-1368,-13119
42.278412,192,-1365,-13104
42.294037,189,-1320,-13078
42.309662,196,-1347,-13126
42.325287,198,-1329,-13074
42.340912,182,-1331,-13095
42.356537,162,-1370,-13103
42.372162,174,-1354,-13047
42.387787,191,-1370,-13138
42.403412,187,-1381,-13094
42.419037,194,-1357,-13044
42.434662,194,-1388,-13165
42.450287,169,-1347,-13058
42.465912,169,-1315,-13029
42.481537,166,-1361,-13140
42.497162,166,-1320,-13061
42.512787,180,-1334,-13099
42.528412,176,-1352,-13079
42.544037,194,-1336,-13060
42.559662,183,-1415,-13183
42.575287,166,-1356,-13001
42.590912,187,-1325,-13051
42.606537,174,-1418,-13220
42.622162,173,-1334,-12986
42.637787,185,-1322,-13081
42.653412,166,-1379,-13190
42.669037,176,-1322,-13013
42.684662,182,-1354,-13101
42.700287,158,-1361,-13119
42.715912,173,-1334,-13067
42.731537,185,-1365,-13108
42.747162,183,-1341,-13061
42.762787,185,-1372,-13120
42.778412,173,-1375,-13086
42.794037,167,-1299,-13006
42.809662,176,-1350,-13188
42.825287,171,-1363,-13136
42.840912,173,-1290,-12969
42.856537,164,-1370,-13165
42.872162,149,-1374,-13128
42.887787,162,-1291,-12945
42.903412,151,-1359,-13154
42.919037,160,-1357,-13147
42.934662,224,-1295,-12988
42.950287,212,-1356,-13160
42.965912,174,-1370,-13128
42.981537,198,-1340,-12986
42.997162,174,-1377,-13119
43.012787,146,-1375,-13110
43.028412,178,-1363,-13044
43.044037,196,-1379,-13122
43.059662,180,-1365,-13128
43.075287,158,-1363,-13079
43.090912,162,-1340,-13042
43.106537,166,-1338,-13099
43.122162,162,-1350,-13128
43.137787,187,-1318,-13040
43.153290,194,-1327,-13110
43.168915,196,-1359,-13154
43.184540,217,-1352,-13024
43.200165,201,-1357,-13079
43.215790,176,-1377,-13161
43.231415,185,-1386,-13033
43.247040,167,-1393,-13078
43.262665,142,-1397,-13103
43.278290,160,-1409,-12942
43.293915,155,-1400,-13103
43.309540,173,-1332,-13131
43.325165,214,-1313,-13047
43.340790,183,-1375,-13203
43.356415,162,-1322,-13013
43.372040,158,-1300,-13003
43.387665,141,-1399,-13224
43.403290,169,-1332,-12990
43.418915,224,-1320,-13085
43.434540,230,-1420,-13272
43.450165,210,-1343,-12963
43.465790,180,-1359,-13051
43.481415,144,-1424,-13174
43.497040,157,-1354,-12969
43.512665,169,-1349,-13065
43.528290,160,-1331,-13176
43.543915,169,-1332,-13117
43.559540,189,-1341,-13029
43.575165,194,-1318,-13101
43.590790,169,-1377,-13172
43.606415,178,-1347,-12935
43.622040,180,-1352,-13078
43.637665,157,-1425,-13261
43.653290,196,-1306,-12938
43.668915,212,-1334,-13110
43.684540,174,-1436,-13256
43.700165,173,-1304,-12908
43.715790,149,-1350,-13120
43.731415,123,-1395,-13194
43.747040,162,-1282,-12956
43.762665,189,-1377,-13192
43.778290,199,-1386,-13142
43.793915,214,-1336,-12985
43.809540,185,-1406,-13142
43.825165,164,-1345,-13061
43.840790,151,-1318,-13058
43.856415,141,-1336,-13151
43.872040,166,-1291,-13104
43.887665,176,-1336,-13129
43.903290,189,-1345,-13063
43.918915,210,-1368,-13067
43.934540,189,-1415,-13145
43.950165,167,-1361,-13054
43.965790,180,-1365,-13079
43.981415,189,-1352,-13124
43.997040,174,-1311,-13061
44.012665,162,-1340,-13090
44.028290,160,-1325,-13113
44.043915,167,-1331,-13099
44.059540,176,-1365,-13097
44.075165,167,-1345,-13097
44.090790,174,-1352,-13108
44.106415,198,-1381,-13069
44.122040,208,-1366,-13049
44.137665,201,-1374,-13115
44.153290,176,-1390,-13113
44.168915,160,-1340,-13044
44.184540,146,-1329,-13133
44.200165,133,-1352,-13176
44.215790,157,-1293,-12995
44.231415,187,-1311,-13088
44.247040,194,-1391,-13204
44.262665,201,-1325,-12979
44.278290,210,-1329,-13081
44.293915,187,-1427,-13228
44.309540,182,-1390,-13026
44.325165,182,-1381,-13058
44.340790,173,-1386,-13144
44.356415,169,-1332,-13074
44.372040,153,-1338,-13072
44.387665,162,-1336,-13104
44.403290,169,-1336,-13147
44.418915,173,-1352,-13058
44.434540,203,-1340,-13029
44.450165,212,-1374,-13176
44.465790,217,-1349,-13035
44.481415,212,-1318,-13011
44.497040,162,-1399,-13235
44.512665,139,-1350,-13047
44.528290,139,-1309,-12985
44.543915,123,-1395,-13174
44.559540,148,-1365,-13049
44.575165,176,-1332,-13038
44.590790,183,-1359,-13160
44.606415,203,-1332,-13094
44.622040,207,-1340,-13056
44.637665,194,-1352,-13074
44.653290,174,-1349,-13097
44.668915,174,-1350,-13076
44.684540,185,-1327,-13054
44.700165,162,-1341,-13147
44.715790,166,-1356,-13111
44.731415,182,-1341,-13044
44.747040,164,-1379,-13138
44.762665,166,-1382,-13053
44.778290,180,-1363,-13001
44.793915,183,-1397,-13163
44.809540,205,-1368,-13081
44.825165,196,-1329,-13047
44.840790,174,-1350,-13188
44.856415,174,-1299,-13061
44.872040,167,-1302,-13047
44.887665,171,-1366,-13136
44.903290,189,-1325,-13067
44.918915,196,-1382,-13129
44.934540,198,-1420,-13069
44.950165,194,-1368,-13024
44.965790,182,-1424,-13149
44.981415,182,-1382,-13008
44.997040,187,-1343,-13074
45.012665,171,-1388,-13242
45.028290,182,-1297,-13028
45.043915,194,-1315,-13094
45.059540,171,-1386,-13201
45.075165,164,-1300,-12986
45.090790,178,-1341,-13074
45.106415,189,-1382,-13136
45.122040,189,-1340,-13031
45.137665,171,-1411,-13110
45.153290,167,-1386,-13070
45.168915,185,-1368,-13076
45.184540,178,-1429,-13117
45.200165,151,-1349,-13013
45.215790,142,-1325,-13133
45.231415,151,-1347,-13145
45.247040,183,-1286,-13019
45.262665,205,-1322,-13156
45.278290,198,-1352,-13113
45.293915,198,-1338,-13015
45.309540,187,-1384,-13133
45.325165,164,-1359,-13058
45.340790,169,-1345,-13033
45.356415,178,-1399,-13138
45.372040,180,-1359,-13074
45.387665,192,-1361,-13090
45.403290,183,-1384,-13115
45.418915,169,-1341,-13054
45.434540,180,-1370,-13126
45.450165,185,-1357,-13115
45.465790,176,-1302,-13067
45.481415,178,-1336,-13131
45.497040,189,-1338,-13072
45.512665,183,-1327,-13045
45.528290,174,-1384,-13144
45.543915,191,-1377,-13063
45.559540,185,-1352,-13054
45.575165,151,-1384,-13169
45.590790,166,-1352,-13053
45.606415,183,-1336,-13060
45.622040,182,-1359,-13135
45.637665,196,-1327,-13038
45.653290,194,-1334,-13086
45.668915,194,-1332,-13101
45.684540,182,-1338,-13097
45.700165,157,-1377,-13136
45.715790,160,-1325,-13017
45.731415,144,-1349,-13090
45.747040,144,-1399,-13138
45.762665,166,-1324,-13011
45.778290,148,-1340,-13149
45.793915,160,-1363,-13128
45.809540,191,-1311,-12965
45.825165,182,-1365,-13144
45.840790,178,-1381,-13136
45.856415,171,-1307,-12967
45.872040,160,-1356,-13140
45.887665,167,-1388,-13165
45.903290,162,-1332,-12995
45.918915,171,-1365,-13090
45.934540,192,-1388,-13147
45.950165,189,-1352,-13047
45.965790,191,-1343,-13044
45.981415,192,-1341,-13124
45.997040,174,-1347,-13126
46.012665,174,-1334,-13036
46.028290,174,-1331,-13086
46.043915,167,-1379,-13140
46.059540,169,-1356,-13001
46.075165,151,-1343,-13079
46.090790,149,-1388,-13178
46.106415,164,-1311,-12983
46.122040,160,-1334,-13103
46.137665,176,-1422,-13201
46.153290,205,-1318,-12953
46.168915,205,-1356,-13106
46.184540,208,-1427,-13201
46.200165,192,-1327,-12992
46.215790,164,-1357,-13120
46.231415,169,-1368,-13129
46.247040,171,-1334,-13017
46.262665,155,-1372,-13097
46.278290,166,-1338,-13078
46.293915,180,-1356,-13099
46.309540,176,-1361,-13097
46.325165,176,-1329,-13079
46.340790,183,-1390,-13154
46.356415,180,-1340,-13028
46.372040,164,-1325,-13051
46.387665,153,-1388,-13156
46.403290,169,-1307,-13003
46.418915,178,-1343,-13099
46.434540,166,-1399,-13172
46.450165,180,-1327,-13003
46.465790,199,-1377,-13083
46.481415,185,-1395,-13122
46.497040,176,-1340,-13035
46.512665,176,-1357,-13110
46.528290,180,-1345,-13129
46.543915,210,-1334,-13086
46.559540,210,-1345,-13103
46.575165,171,-1325,-13076
46.590790,162,-1343,-13085
46.606415,157,-1359,-13106
46.622040,160,-1345,-13070
46.637665,185,-1370,-13085
46.653290,174,-1363,-13065
46.668915,182,-1357,-13081
46.684540,217,-1400,-13126
46.700165,212,-1352,-13024
46.715790,183,-1334,-13092
46.731415,164,-1366,-13151
46.747040,169,-1304,-12997
46.762665,174,-1329,-13147
46.778290,155,-1372,-13156
46.793915,167,-1307,-12899
46.809540,185,-1377,-13151
46.825165,164,-1413,-13213
46.840790,174,-1306,-12904
46.856415,173,-1361,-13160
46.872040,176,-1416,-13238
46.887665,205,-1334,-12936
46.903290,173,-1365,-13115
46.918915,167,-1381,-13172
46.934540,189,-1315,-12999
46.950165,162,-1359,-13103
46.965790,160,-1386,-13126
46.981415,174,-1356,-13058
46.997040,158,-1347,-13053
47.012665,164,-1345,-13104
47.028290,180,-1354,-13147
47.043915,182,-1329,-13036
47.059540,176,-1341,-13104
47.075165,162,-1370,-13197
47.090790,167,-1309,-13004
47.106415,178,-1327,-13069
47.122040,169,-1400,-13197
47.137665,174,-1350,-13010
47.153290,180,-1338,-13083
47.168915,189,-1384,-13208
47.184540,183,-1341,-13010
47.200165,166,-1329,-13053
47.215790,178,-1366,-13183
47.231415,198,-1329,-13019
47.247040,187,-1336,-13058
47.262665,167,-1370,-13163
47.278290,166,-1329,-13047
47.293915,167,-1359,-13072
47.309540,162,-1366,-13101
47.325165,164,-1334,-13085
47.340790,173,-1375,-13101
47.356415,183,-1341,-13036
47.372040,196,-1356,-13133
47.387665,191,-1384,-13119
47.403290,176,-1322,-12992
47.418915,189,-1368,-13160
47.434540,189,-1356,-13101
47.450165,176,-1311,-12988
47.465790,174,-1388,-13172
47.481415,164,-1350,-13108
47.497040,174,-1320,-13042
47.512665,178,-1359,-13124
47.528290,173,-1327,-13090
47.543915,189,-1366,-13111
47.559540,201,-1366,-13083
47.575165,201,-1352,-13104
47.590790,169,-1406,-13126
47.606415,157,-1304,-12974
47.622040,153,-1304,-13133
47.637665,151,-1402,-13201
47.653290,178,-1320,-12926
47.668915,192,-1359,-13108
47.684540,205,-1443,-13242
47.700165,214,-1356,-12981
47.715790,189,-1374,-13053
47.731415,166,-1391,-13128
47.747040,155,-1336,-13042
47.762665,157,-1345,-13095
47.778290,194,-1311,-13111
47.793915,228,-1307,-13120
47.809540,199,-1327,-13078
47.825165,167,-1327,-13060
47.840790,153,-1388,-13126
47.856415,164,-1375,-13022
47.872040,187,-1345,-13053
47.887665,183,-1390,-13192
47.903290,194,-1354,-13042
47.918915,199,-1347,-13058
47.934540,178,-1390,-13185
47.950165,157,-1324,-13028
47.965790,133,-1311,-13042
47.981415,141,-1347,-13163
47.997040,164,-1300,-13069
48.012665,185,-1327,-13079
48.028290,208,-1388,-13128
48.043915,201,-1388,-13067
48.059540,183,-1402,-13072
48.075165,176,-1366,-13069
48.090790,164,-1343,-13122
48.106415,144,-1363,-13128
48.122040,166,-1320,-13010
48.137665,183,-1315,-13133
48.153290,169,-1350,-13161
48.168915,194,-1311,-12956
48.184540,192,-1340,-13126
48.200165,167,-1382,-13210
48.215790,191,-1334,-12969
48.231415,182,-1374,-13101
48.247040,160,-1402,-13178
48.262665,171,-1340,-12969
48.278290,157,-1347,-13086
48.293915,164,-1374,-13195
48.309540,180,-1340,-13067
48.325165,155,-1332,-13054
48.340790,174,-1334,-13104
48.356415,210,-1347,-13133
48.372040,210,-1349,-13020
48.387665,210,-1325,-13038
48.403290,185,-1402,-13238
48.418915,169,-1384,-13019
48.434540,158,-1322,-12985
48.450165,133,-1404,-13267
48.465790,149,-1356,-13008
48.481415,173,-1302,-12954
48.497040,162,-1382,-13256
48.512665,182,-1325,-13053
48.528290,187,-1293,-12978
48.543915,173,-1372,-13195
48.559540,205,-1356,-13092
48.575165,199,-1354,-13013
48.590790,176,-1379,-13088
48.606415,182,-1356,-13104
48.622040,169,-1357,-13099
48.637665,148,-1338,-13051
48.653290,149,-1340,-13120
48.668915,191,-1384,-13120
48.684540,221,-1340,-12985
48.700165,207,-1352,-13144
48.715790,203,-1377,-13129
48.731415,196,-1295,-12953
48.747040,174,-1357,-13183
48.762665,164,-1377,-13120
48.778290,158,-1282,-12935
48.793915,157,-1379,-13199
48.809540,171,-1404,-13124
48.825165,162,-1320,-12983
48.840790,144,-1368,-13183
48.856415,169,-1343,-13097
48.872040,191,-1316,-13031
48.887665,189,-1370,-13138
48.903290,199,-1343,-13070
48.918915,212,-1361,-13092
48.934540,203,-1386,-13131
48.950165,174,-1345,-13092
48.965790,157,-1359,-13113
48.981415,166,-1343,-13049
48.997040,149,-1341,-13086
49.012665,139,-1393,-13120
49.028290,192,-1372,-13003
49.043915,217,-1368,-13111
49.059540,205,-1374,-13153
49.075165,196,-1315,-13022
49.090790,173,-1341,-13119
49.106415,174,-1377,-13108
49.122040,180,-1334,-13019
49.137665,162,-1352,-13133
49.153290,167,-1354,-13086
49.168915,187,-1350,-13067
49.184540,174,-1382,-13158
49.200165,178,-1349,-13051
49.215790,182,-1349,-13053
49.231415,166,-1359,-13129
49.247040,176,-1329,-13051
49.262665,169,-1332,-13076
49.278290,146,-1315,-13126
49.293915,166,-1324,-13072
49.309540,196,-1391,-13081
49.325165,194,-1391,-13078
49.340790,180,-1366,-13058
49.356415,160,-1386,-13103
49.372040,155,-1357,-13083
49.387665,171,-1300,-13067
49.403290,176,-1322,-13119
49.418915,192,-1345,-13088
49.434540,196,-1343,-13085
49.450165,171,-1372,-13124
49.465790,164,-1357,-13040
49.481415,153,-1363,-13072
49.497040,148,-1415,-13124
49.512665,189,-1382,-13028
49.528290,199,-1365,-13113
49.543915,198,-1377,-13151
49.559540,198,-1320,-13047
49.575165,144,-1315,-13122
49.590790,121,-1334,-13110
49.606415,146,-1322,-13036
49.622040,149,-1338,-13110
49.637665,182,-1332,-13106
49.653290,219,-1349,-13074
49.668915,224,-1388,-13070
49.684540,224,-1404,-13124
49.700165,196,-1416,-13128
49.715790,166,-1359,-12976
49.731415,148,-1370,-13119
49.747040,128,-1390,-13167
49.762665,151,-1265,-12944
49.778290,185,-1299,-13174
49.793915,187,-1365,-13203
49.809540,180,-1302,-12947
49.825165,174,-1377,-13131
49.840790,189,-1407,-13122
49.856415,196,-1357,-12979
49.872040,182,-1400,-13138
49.887665,174,-1375,-13136
49.903290,160,-1347,-13069
49.918915,151,-1345,-13063
49.934540,146,-1324,-13113
49.950165,124,-1366,-13160
49.965790,139,-1316,-12969
49.981415,180,-1316,-13094
49.997040,210,-1416,-13245
50.012665,224,-1325,-12929
50.028290,205,-1322,-13074
50.043915,189,-1422,-13265
50.059540,187,-1325,-12933
50.075165,144,-1325,-13054
50.090790,117,-1397,-13229
50.106415,149,-1322,-12994
50.122040,157,-1343,-13074
50.137665,173,-1397,-13185
50.153290,203,-1320,-13029
50.168915,217,-1307,-13051
50.184540,223,-1365,-13138
50.200165,205,-1352,-13092
50.215790,199,-1350,-13069
50.231415,205,-1374,-13108
50.247040,174,-1377,-13106
50.262665,148,-1359,-13061
50.278290,137,-1352,-13074
50.293915,130,-1354,-13104
50.309540,149,-1325,-13074
50.325165,182,-1320,-13101
50.340790,198,-1347,-13128
50.356415,210,-1331,-13029
50.372040,223,-1352,-13060
50.387665,201,-1409,-13147
50.403290,183,-1377,-13028
50.418915,196,-1365,-13056
50.434540,164,-1399,-13174
50.450165,132,-1327,-13024
50.465790,130,-1304,-13065
50.481415,116,-1357,-13179
50.497040,144,-1302,-13010
50.512665,187,-1332,-13101
50.528290,192,-1402,-13192
50.543915,216,-1350,-12992
50.559540,226,-1381,-13079
50.575165,198,-1415,-13156
50.590790,169,-1357,-12999
50.606415,166,-1357,-13083
50.622040,155,-1359,-13140
50.637665,132,-1316,-13035
50.653290,130,-1331,-13079
50.668915,157,-1345,-13122
50.684540,176,-1336,-13090
50.700165,182,-1341,-13054
50.715790,196,-1357,-13095
50.731415,207,-1388,-13145
50.747040,208,-1359,-13033
50.762665,183,-1345,-13065
50.778290,144,-1375,-13147
50.793915,139,-1331,-13036
50.809540,126,-1334,-13113
50.825165,110,-1361,-13183
50.840790,149,-1311,-13015
50.856415,187,-1341,-13085
50.872040,199,-1390,-13160
50.887665,216,-1350,-13028
50.903290,224,-1356,-13063
50.918915,223,-1379,-13095
50.934540,189,-1379,-13099
50.950165,141,-1372,-13099
50.965790,128,-1324,-13028
50.981415,121,-1354,-13145
50.997040,123,-1366,-13078
51.012665,160,-1316,-12972
51.028290,182,-1397,-13208
51.043915,207,-1382,-13076
51.059540,235,-1320,-12997
51.075165,203,-1400,-13245
51.090790,187,-1345,-13017
51.106415,196,-1311,-12992
51.122040,157,-1397,-13238
51.137665,141,-1329,-13019
51.153412,137,-1315,-13028
51.169037,114,-1375,-13185
51.184662,155,-1343,-13042
51.200287,189,-1350,-13070
51.215912,191,-1363,-13128
51.231537,216,-1332,-13072
51.247162,207,-1334,-13074
51.262787,185,-1363,-13079
51.278412,167,-1388,-13135
51.294037,153,-1372,-13081
51.309662,142,-1327,-13020
51.325287,128,-1366,-13167
51.340912,151,-1372,-13086
51.356537,160,-1316,-12985
51.372162,167,-1388,-13186
51.387787,191,-1390,-13090
51.403412,189,-1332,-12981
51.419037,194,-1399,-13197
51.434662,205,-1379,-13099
51.450287,183,-1318,-12972
51.465912,157,-1363,-13142
51.481537,153,-1341,-13110
51.497162,141,-1300,-13019
51.512787,149,-1350,-13095
51.528412,189,-1366,-13113
51.544037,199,-1366,-13088
51.559662,191,-1379,-13079
51.575287,180,-1379,-13090
51.590912,151,-1381,-13094
51.606537,139,-1336,-13038
51.622162,153,-1325,-13115
51.637787,164,-1349,-13147
51.653412,178,-1304,-13013
51.669037,199,-1318,-13108
51.684662,194,-1375,-13161
51.700287,182,-1329,-12983
51.715912,169,-1332,-13101
51.731537,153,-1382,-13179
51.747162,157,-1347,-13010
51.762787,164,-1374,-13092
51.778412,162,-1386,-13106
51.794037,173,-1341,-13033
51.809662,192,-1356,-13135
51.825287,199,-1324,-13090
51.840912,191,-1291,-13056
51.856537,180,-1336,-13140
51.872162,185,-1343,-13063
51.887787,187,-1332,-13038
51.903412,180,-1365,-13110
51.919037,189,-1361,-13081
51.934662,182,-1363,-13088
51.950287,185,-1366,-13095
51.965912,191,-1377,-13111
51.981537,149,-1386,-13072
51.997162,133,-1336,-13003
52.012787,141,-1340,-13133
52.028412,153,-1318,-13101
52.044037,199,-1274,-13047
52.059662,217,-1340,-13233
52.075287,207,-1332,-13074
52.090912,207,-1340,-12969
52.106537,166,-1440,-13172
52.122162,142,-1363,-13004
52.137787,151,-1316,-13011
52.153290,148,-1404,-13269
52.168915,187,-1352,-13076
52.184540,210,-1338,-13035
52.200165,182,-1391,-13156
52.215790,178,-1354,-12990
52.231415,178,-1343,-12983
52.247040,164,-1354,-13131
52.262665,173,-1356,-13154
52.278290,173,-1340,-13078
52.293915,171,-1340,-13069
52.309540,182,-1404,-13151
52.325165,167,-1381,-13020
52.340790,158,-1324,-12976
52.356415,148,-1356,-13222
52.372040,162,-1341,-13140
52.387665,214,-1307,-12981
52.403290,199,-1354,-13147
52.418915,185,-1365,-13069
52.434540,207,-1340,-12960
52.450165,183,-1386,-13179
52.465790,180,-1377,-13153
52.481415,185,-1324,-13026
52.497040,153,-1374,-13154
52.512665,144,-1366,-13083
52.528290,148,-1313,-12965
52.543915,142,-1334,-13108
52.559540,164,-1316,-13169
52.575165,178,-1311,-13104
52.590790,180,-1366,-13088
52.606415,201,-1397,-13076
52.622040,207,-1415,-13045
52.637665,191,-1409,-13028
52.653290,185,-1359,-13072
52.668915,149,-1331,-13158
52.684540,123,-1286,-13110
52.700165,141,-1266,-13108
52.715790,149,-1341,-13138
52.731415,169,-1347,-12983
52.747040,194,-1363,-13026
52.762665,196,-1427,-13149
52.778290,201,-1381,-13038
52.793915,212,-1359,-13090
52.809540,191,-1390,-13179
52.825165,166,-1345,-13045
52.840790,162,-1325,-13028
52.856415,146,-1349,-13108
52.872040,133,-1345,-13090
52.887665,144,-1327,-13061
52.903290,166,-1311,-13111
52.918915,185,-1352,-13169
52.934540,201,-1375,-13029
52.950165,228,-1370,-13001
52.965790,230,-1406,-13151
52.981415,194,-1354,-13056
52.997040,167,-1311,-13076
53.012665,135,-1370,-13217
53.028290,101,-1352,-13044
53.043915,117,-1345,-12997
53.059540,160,-1400,-13138
53.075165,171,-1377,-13074
53.090790,180,-1329,-13040
53.106415,210,-1336,-13149
53.122040,208,-1322,-13138
53.137665,173,-1322,-13069
53.153290,158,-1352,-13060
53.168915,148,-1341,-13081
53.184540,151,-1350,-13104
53.200165,169,-1341,-13063
53.215790,171,-1325,-13113
53.231415,167,-1381,-13160
53.247040,183,-1363,-13011
53.262665,203,-1366,-13060
53.278290,182,-1415,-13124
53.293915,176,-1329,-12988
53.309540,210,-1334,-13147
53.325165,208,-1363,-13199
53.340790,191,-1297,-13022
53.356415,153,-1357,-13110
53.372040,123,-1377,-13061
53.387665,144,-1334,-13003
53.403290,148,-1388,-13145
53.418915,167,-1341,-13058
53.434540,210,-1306,-13113
53.450165,210,-1375,-13204
53.465790,214,-1334,-12967
53.481415,198,-1357,-13060
53.497040,149,-1400,-13153
53.512665,142,-1325,-12967
53.528290,151,-1368,-13135
53.543915,166,-1375,-13204
53.559540,191,-1299,-13047
53.575165,166,-1356,-13111
53.590790,141,-1379,-13086
53.606415,162,-1349,-13029
53.622040,180,-1372,-13069
53.637665,199,-1352,-13086
53.653290,210,-1368,-13167
53.668915,201,-1357,-13067
53.684540,185,-1325,-13035
53.700165,137,-1397,-13176
53.715790,128,-1349,-12988
53.731415,151,-1297,-13024
53.747040,126,-1381,-13251
53.762665,144,-1311,-13006
53.778290,180,-1277,-13035
53.793915,187,-1388,-13231
53.809540,223,-1338,-12961
53.825165,212,-1331,-13047
53.840790,171,-1407,-13226
53.856415,182,-1338,-12988
53.872040,167,-1336,-13079
53.887665,141,-1386,-13195
53.903290,142,-1345,-13004
53.918915,144,-1359,-13038
53.934540,171,-1366,-13119
53.950165,194,-1334,-13097
53.965790,198,-1345,-13094
53.981415,208,-1347,-13079
53.997040,192,-1354,-13124
54.012665,164,-1345,-13063
54.028290,146,-1313,-13008
54.043915,144,-1370,-13153
54.059540,148,-1372,-13111
54.075165,141,-1320,-13038
54.090790,146,-1386,-13160
54.106415,158,-1386,-13072
54.122040,178,-1347,-13010
54.137665,187,-1384,-13117
54.153290,187,-1343,-13061
54.168915,208,-1320,-13086
54.184540,196,-1345,-13145
54.200165,171,-1297,-13060
54.215790,166,-1331,-13086
54.231415,144,-1366,-13051
54.247040,132,-1338,-13022
54.262665,137,-1384,-13153
54.278290,151,-1352,-13074
54.293915,178,-1334,-13081
54.309540,192,-1406,-13176
54.325165,198,-1350,-12994
54.340790,198,-1338,-13069
54.356415,173,-1393,-13179
54.372040,167,-1300,-12974
54.387665,166,-1318,-13131
54.403290,151,-1368,-13204
54.418915,166,-1293,-12972
54.434540,171,-1375,-13131
54.450165,157,-1402,-13113
54.465790,173,-1331,-12965
54.481415,189,-1395,-13172
54.497040,191,-1357,-13124
54.512665,199,-1320,-13040
54.528290,166,-1370,-13145
54.543915,149,-1327,-13054
54.559540,192,-1340,-13061
54.575165,178,-1357,-13117
54.590790,146,-1322,-13054
54.606415,160,-1356,-13110
54.622040,171,-1349,-13097
54.637665,174,-1357,-13058
54.653290,196,-1420,-13103
54.668915,216,-1399,-13060
54.684540,207,-1372,-13083
54.700165,189,-1363,-13113
54.715790,171,-1331,-13069
54.731415,153,-1345,-13099
54.747040,153,-1347,-13074
54.762665,171,-1325,-13063
54.778290,173,-1352,-13126
54.793915,191,-1354,-13060
54.809540,199,-1359,-13076
54.825165,167,-1388,-13156
54.840790,183,-1361,-13065
54.856415,194,-1366,-13053
54.872040,162,-1379,-13103
54.887665,167,-1341,-13067
54.903290,191,-1357,-13085
54.918915,208,-1372,-13119
54.934540,178,-1331,-13111
54.950165,128,-1320,-13083
54.965790,160,-1340,-13053
54.981415,182,-1359,-13099
54.997040,166,-1377,-13103
55.012665,176,-1345,-13029
55.028290,173,-1345,-13108
55.043915,183,-1386,-13142
55.059540,187,-1366,-13033
55.075165,158,-1366,-13088
55.090790,160,-1370,-13126
55.106415,187,-1318,-13028
55.122040,194,-1331,-13111
55.137665,176,-1352,-13183
55.153290,176,-1300,-13042
55.168915,182,-1325,-13049
55.184540,173,-1391,-13140
55.200165,169,-1377,-13044
55.215790,169,-1357,-13035
55.231415,174,-1377,-13142
55.247040,164,-1361,-13088
55.262665,142,-1336,-13020
55.278290,158,-1352,-13103
55.293915,171,-1349,-13122
55.309540,155,-1304,-13010
55.325165,157,-1316,-13094
55.340790,180,-1363,-13195
55.356415,185,-1315,-12997
55.372040,164,-1340,-13072
55.387665,162,-1424,-13190
55.403290,171,-1357,-12929
55.418915,157,-1363,-13053
55.434540,155,-1416,-13231
55.450165,167,-1327,-13015
55.465790,164,-1325,-13079
55.481415,174,-1356,-13149
55.497040,198,-1306,-13053
55.512665,180,-1336,-13086
55.528290,185,-1324,-13040
55.543915,196,-1329,-13117
55.559540,169,-1370,-13115
55.575165,162,-1327,-12992
55.590790,160,-1379,-13154
55.606415,162,-1384,-13090
55.622040,169,-1327,-12951
55.637665,157,-1395,-13156
55.653290,160,-1370,-13101
55.668915,187,-1322,-13001
55.684540,216,-1368,-13190
55.700165,217,-1329,-13142
55.715790,207,-1322,-13011
55.731415,207,-1366,-13081
55.747040,185,-1332,-13097
55.762665,162,-1356,-13072
55.778290,149,-1366,-13042
55.793915,158,-1343,-13090
55.809540,174,-1388,-13147
55.825165,167,-1347,-12994
55.840790,187,-1340,-13053
55.856415,185,-1381,-13170
55.872040,171,-1295,-13003
55.887665,189,-1311,-13069
55.903290,187,-1379,-13190
55.918915,180,-1345,-13033
55.934540,180,-1368,-13038
55.950165,160,-1395,-13153
55.965790,142,-1352,-13051
55.981415,164,-1350,-13031
55.997040,167,-1391,-13167
56.012665,149,-1357,-13097
56.028290,174,-1331,-13028
56.043915,201,-1372,-13145
56.059540,210,-1370,-13133
56.075165,207,-1352,-13049
56.090790,194,-1341,-13092
56.106415,183,-1347,-13129
56.122040,162,-1366,-13058
56.137665,155,-1354,-13026
56.153290,151,-1374,-13128
56.168915,153,-1388,-13119
56.184540,176,-1356,-13026
56.200165,171,-1361,-13095
56.215790,160,-1375,-13131
56.231415,187,-1343,-13026
56.247040,196,-1331,-13060
56.262665,173,-1329,-13158
56.278290,178,-1295,-13085
56.293915,203,-1307,-13060
56.309540,199,-1357,-13153
56.325165,171,-1363,-13103
56.340790,149,-1379,-13015
56.356415,146,-1422,-13099
56.372040,137,-1402,-13103
56.387665,146,-1345,-12999
56.403290,174,-1349,-13103
56.418915,192,-1356,-13190
56.434540,205,-1293,-13053
56.450165,201,-1270,-13061
56.465790,174,-1340,-13156
56.481415,166,-1345,-13049
56.497040,173,-1338,-13038
56.512665,167,-1384,-13108
56.528290,167,-1379,-13092
56.543915,185,-1393,-13108
56.559540,189,-1395,-13079
56.575165,173,-1390,-13092
56.590790,171,-1404,-13083
56.606415,178,-1352,-13011
56.622040,180,-1352,-13153
56.637665,185,-1354,-13136
56.653290,185,-1290,-12979
56.668915,183,-1336,-13172
56.684540,191,-1368,-13170
56.700165,185,-1302,-12947
56.715790,180,-1370,-13133
56.731415,169,-1420,-13154
56.747040,155,-1352,-12963
56.762665,149,-1411,-13120
56.778290,153,-1409,-13113
56.793915,185,-1341,-13010
56.809540,196,-1366,-13122
56.825165,183,-1320,-13113
56.840790,174,-1299,-13092
56.856415,164,-1327,-13090
56.872040,180,-1318,-13104
56.887665,191,-1350,-13119
56.903290,191,-1338,-12999
56.918915,205,-1388,-13126
56.934540,203,-1450,-13172
56.950165,178,-1356,-12967
56.965790,135,-1388,-13138
56.981415,130,-1404,-13151
56.997040,157,-1295,-12944
57.012665,146,-1343,-13153
57.028290,158,-1325,-13172
57.043915,208,-1265,-13006
57.059540,214,-1341,-13128
57.075165,182,-1356,-13140
57.090790,171,-1370,-13047
57.106415,171,-1402,-13036
57.122040,160,-1386,-13072
57.137665,162,-1400,-13128
57.153290,158,-1349,-13031
57.168915,169,-1302,-13067
57.184540,194,-1372,-13236
57.200165,183,-1349,-13047
57.215790,173,-1304,-12978
57.231415,180,-1375,-13208
57.247040,187,-1338,-13051
57.262665,171,-1286,-12976
57.278290,153,-1372,-13204
57.293915,182,-1357,-13085
57.309540,174,-1352,-13020
57.325165,128,-1402,-13138
57.340790,141,-1350,-13054
57.356415,160,-1352,-13067
57.372040,171,-1372,-13120
57.387665,207,-1338,-13090
57.403290,198,-1347,-13101
57.418915,198,-1347,-13067
57.434540,219,-1345,-13097
57.450165,178,-1357,-13142
57.465790,148,-1334,-13033
57.481415,155,-1340,-13036
57.497040,151,-1384,-13161
57.512665,158,-1374,-13079
57.528290,162,-1341,-12994
57.543915,173,-1375,-13154
57.559540,192,-1386,-13138
57.575165,182,-1307,-12983
57.590790,169,-1304,-13113
57.606415,180,-1354,-13154
57.622040,185,-1340,-12997
57.637665,164,-1325,-13067
57.653290,162,-1356,-13181
57.668915,167,-1349,-13036
57.684540,157,-1331,-13010
57.700165,146,-1407,-13197
57.715790,157,-1404,-13053
57.731415,185,-1332,-12945
57.747040,176,-1395,-13211
57.762665,176,-1361,-13083
57.778290,203,-1274,-12945
57.793915,192,-1365,-13236
57.809540,187,-1350,-13110
57.825165,180,-1293,-12979
57.840790,144,-1382,-13188
57.856415,157,-1361,-13070
57.872040,169,-1349,-12999
57.887665,149,-1391,-13149
57.903290,173,-1356,-13129
57.918915,207,-1354,-13035
57.934540,210,-1349,-13067
57.950165,164,-1357,-13169
57.965790,146,-1343,-13049
57.981415,176,-1291,-12994
57.997040,160,-1352,-13201
58.012665,157,-1352,-13095
58.028290,169,-1309,-12981
58.043915,174,-1382,-13179
58.059540,196,-1388,-13092
58.075165,178,-1352,-12985
58.090790,151,-1390,-13145
58.106415,171,-1359,-13095
58.122040,183,-1322,-13028
58.137665,176,-1368,-13165
58.153290,174,-1365,-13120
58.168915,166,-1334,-13035
58.184540,167,-1347,-13119
58.200165,169,-1345,-13119
58.215790,157,-1338,-13040
58.231415,166,-1357,-13079
58.247040,180,-1381,-13124
58.262665,173,-1359,-13044
58.278290,162,-1338,-13074
58.293915,158,-1377,-13172
58.309540,180,-1341,-13035
58.325165,191,-1304,-13063
58.340790,173,-1372,-13222
58.356415,166,-1336,-13011
58.372040,182,-1318,-13001
58.387665,185,-1400,-13229
58.403290,176,-1359,-13038
58.418915,180,-1331,-12981
58.434540,182,-1418,-13254
58.450165,180,-1366,-13079
58.465790,169,-1299,-12965
58.481415,153,-1381,-13222
58.497040,171,-1345,-13076
58.512665,183,-1295,-12985
58.528290,178,-1381,-13194
58.543915,196,-1363,-13085
58.559540,203,-1334,-13015
58.575165,178,-1386,-13135
58.590790,176,-1354,-13070
58.606415,174,-1336,-13042
58.622040,164,-1363,-13106
58.637665,162,-1340,-13094
58.653290,164,-1340,-13085
58.668915,183,-1354,-13092
58.684540,176,-1350,-13111
58.700165,162,-1343,-13099
58.715790,178,-1332,-13029
58.731415,180,-1361,-13095
58.747040,173,-1381,-13145
58.762665,174,-1332,-13028
58.778290,174,-1338,-13094
58.793915,176,-1382,-13167
58.809540,160,-1343,-13029
58.825165,132,-1347,-13094
58.840790,149,-1379,-13147
58.856415,173,-1316,-13001
58.872040,174,-1322,-13092
58.887665,191,-1361,-13167
58.903290,196,-1336,-13038
58.918915,187,-1372,-13074
58.934540,183,-1381,-13131
58.950165,166,-1343,-13060
58.965790,155,-1343,-13042
58.981415,167,-1341,-13120
58.997040,173,-1357,-13151
59.012665,201,-1329,-13006
59.028290,194,-1309,-13060
59.043915,149,-1391,-13204
59.059540,173,-1366,-12988
59.075165,187,-1327,-13022
59.090790,166,-1386,-13231
59.106415,178,-1336,-13044
59.122040,180,-1325,-12997
59.137665,160,-1375,-13135
59.153412,142,-1361,-13110
59.169037,158,-1379,-13040
59.184662,196,-1356,-13061
59.200287,167,-1352,-13197
59.215912,148,-1350,-13070
59.231537,180,-1300,-12947
59.247162,194,-1377,-13186
59.262787,194,-1365,-13092
59.278412,178,-1275,-12951
59.294037,164,-1365,-13208
59.309662,174,-1382,-13138
59.325287,171,-1316,-12970
59.340912,153,-1370,-13158
59.356537,157,-1379,-13110
59.372162,174,-1316,-12974
59.387787,176,-1361,-13153
59.403412,191,-1359,-13140
59.419037,203,-1325,-13019
59.434662,185,-1379,-13108
59.450287,176,-1363,-13111
59.465912,176,-1352,-13035
59.481537,180,-1368,-13063
59.497162,171,-1349,-13151
59.512787,162,-1350,-13094
59.528412,187,-1338,-13024
59.544037,176,-1382,-13170
59.559662,162,-1381,-13088
59.575287,169,-1306,-12985
59.590912,155,-1363,-13203
59.606537,164,-1356,-13108
59.622162,198,-1297,-12994
59.637787,205,-1370,-13199
59.653412,180,-1350,-13067
59.669037,176,-1324,-12983
59.684662,182,-1402,-13194
59.700287,157,-1377,-13083
59.715912,160,-1325,-12995
59.731537,174,-1370,-13178
59.747162,171,-1361,-13101
59.762787,180,-1318,-13011
59.778412,174,-1359,-13156
59.794037,173,-1354,-13072
59.809662,201,-1331,-13044
59.825287,196,-1375,-13178
59.840912,169,-1340,-13051
59.856537,164,-1341,-13054
59.872162,167,-1388,-13128
59.887787,174,-1345,-13036
59.903412,151,-1357,-13122
59.919037,160,-1370,-13094
59.934662,182,-1336,-13035
59.950287,160,-1363,-13160
59.965912,185,-1329,-13047
59.981537,210,-1341,-13056
59.997162,198,-1399,-13156
60.012787,198,-1341,-13033
60.028412,173,-1352,-13097
60.044037,157,-1361,-13110
60.059662,176,-1329,-13036
60.075287,176,-1372,-13135
60.090912,174,-1347,-13078
60.106537,169,-1332,-13054
60.122162,153,-1368,-13099
60.137787,167,-1325,-13053
60.153290,174,-1338,-13117
60.168915,174,-1357,-13101
60.184540,187,-1349,-13067
60.200165,178,-1375,-13119
60.215790,169,-1370,-13065
60.231415,167,-1350,-13035
60.247040,173,-1347,-13095
60.262665,169,-1365,-13122
60.278290,169,-1356,-13067
60.293915,182,-1331,-13049
60.309540,173,-1363,-13126
60.325165,162,-1374,-13115
60.340790,176,-1336,-13031
60.356415,199,-1347,-13104
60.372040,196,-1366,-13153
60.387665,171,-1356,-13040
60.403290,141,-1368,-13079
60.418915,137,-1395,-13160
60.434540,160,-1354,-13035
60.450165,160,-1327,-13067
60.465790,148,-1370,-13183
60.481415,169,-1340,-13038
60.497040,192,-1325,-13058
60.512665,189,-1363,-13163
60.528290,191,-1331,-13028
60.543915,203,-1341,-13061
60.559540,192,-1370,-13151
60.575165,167,-1343,-13092
60.590790,155,-1352,-13067
60.606415,178,-1345,-13040
60.622040,192,-1372,-13120
60.637665,171,-1388,-13069
60.653290,171,-1313,-12974
60.668915,171,-1366,-13190
60.684540,191,-1384,-13092
60.700165,224,-1318,-12972
60.715790,180,-1391,-13220
60.731415,162,-1361,-13074
60.747040,174,-1318,-12983
60.762665,162,-1400,-13195
60.778290,171,-1338,-13053
60.793915,174,-1336,-13069
60.809540,176,-1409,-13194
60.825165,180,-1338,-13033
60.840790,151,-1347,-13085
60.856415,149,-1368,-13115
60.872040,192,-1313,-13026
60.887665,187,-1350,-13144
60.903290,166,-1359,-13092
60.918915,196,-1318,-13004
60.934540,194,-1366,-13156
60.950165,162,-1365,-13086
60.965790,166,-1331,-12994
60.981415,158,-1382,-13169
60.997040,151,-1375,-13097
61.012665,162,-1327,-12969
61.028290,171,-1368,-13178
61.043915,187,-1386,-13153
61.059540,189,-1324,-12963
61.075165,157,-1356,-13149
61.090790,153,-1370,-13153
61.106415,189,-1291,-12965
61.122040,199,-1338,-13119
61.137665,191,-1375,-13163
61.153290,178,-1356,-13019
61.168915,173,-1393,-13053
61.184540,176,-1379,-13124
61.200165,164,-1356,-13086
61.215790,171,-1347,-13029
61.231415,187,-1359,-13147
61.247040,176,-1372,-13151
61.262665,183,-1327,-12994
61.278290,178,-1354,-13108
61.293915,166,-1375,-13126
61.309540,189,-1329,-13020
61.325165,189,-1356,-13169
61.340790,169,-1372,-13138
61.356415,171,-1345,-12976
61.372040,166,-1370,-13104
61.387665,149,-1374,-13122
61.403290,160,-1331,-12994
61.418915,180,-1356,-13119
61.434540,187,-1390,-13178
61.450165,183,-1347,-13038
61.465790,189,-1336,-13060
61.481415,201,-1370,-13131
61.497040,212,-1366,-13053
61.512665,185,-1329,-13053
61.528290,167,-1341,-13147
61.543915,180,-1372,-13063
61.559540,173,-1361,-13047
61.575165,157,-1375,-13188
61.590790,166,-1350,-13042
61.606415,185,-1320,-12995
61.622040,182,-1377,-13211
61.637665,189,-1331,-13035
61.653290,208,-1307,-13004
61.668915,189,-1404,-13247
61.684540,194,-1352,-13040
61.700165,176,-1325,-12986
61.715790,146,-1381,-13181
61.731415,174,-1347,-13058
61.747040,173,-1334,-13038
61.762665,182,-1377,-13151
61.778290,187,-1365,-13076
61.793915,157,-1338,-13036
61.809540,189,-1361,-13092
61.825165,203,-1357,-13115
61.840790,198,-1338,-13088
61.856415,208,-1340,-13067
61.872040,169,-1374,-13138
61.887665,151,-1370,-13103
61.903290,153,-1341,-13013
61.918915,158,-1382,-13124
61.934540,173,-1379,-13145
61.950165,176,-1307,-13026
61.965790,185,-1345,-13126
61.981415,187,-1381,-13135
61.997040,194,-1325,-12988
62.012665,198,-1368,-13124
62.028290,178,-1375,-13108
62.043915,182,-1325,-13010
62.059540,187,-1391,-13163
62.075165,169,-1347,-13079
62.090790,151,-1318,-13045
62.106415,155,-1393,-13138
62.122040,176,-1340,-13040
62.137665,167,-1341,-13094
62.153290,160,-1352,-13101
62.168915,194,-1313,-13085
62.184540,198,-1368,-13206
62.200165,178,-1341,-13065
62.215790,185,-1329,-13013
62.231415,167,-1393,-13136
62.247040,139,-1349,-13044
62.262665,146,-1338,-13061
62.278290,164,-1370,-13153
62.293915,167,-1332,-13083
62.309540,174,-1352,-13086
62.325165,182,-1363,-13090
62.340790,174,-1334,-13049
62.356415,176,-1352,-13072
62.372040,185,-1356,-13094
62.387665,185,-1350,-13088
62.403290,182,-1350,-13063
62.418915,173,-1363,-13103
62.434540,157,-1388,-13120
62.450165,151,-1352,-13044
62.465790,155,-1341,-13095
62.481415,155,-1366,-13154
62.497040,173,-1332,-13047
62.512665,203,-1343,-13085
62.528290,216,-1377,-13140
62.543915,212,-1338,-13020
62.559540,192,-1357,-13120
62.575165,171,-1416,-13188
62.590790,174,-1354,-12969
62.606415,182,-1338,-13099
62.622040,166,-1393,-13224
62.637665,160,-1320,-12960
62.653290,166,-1341,-13076
62.668915,176,-1413,-13213
62.684540,189,-1316,-12967
62.700165,183,-1365,-13097
62.715790,180,-1424,-13206
62.731415,198,-1300,-12986
62.747040,192,-1361,-13111
62.762665,157,-1400,-13124
62.778290,139,-1311,-12970
62.793915,157,-1377,-13145
62.809540,178,-1379,-13138
62.825165,176,-1322,-13036
62.840790,185,-1374,-13128
62.856415,198,-1381,-13115
62.872040,180,-1366,-13031
62.887665,182,-1350,-13031
62.903290,187,-1357,-13154
62.918915,169,-1366,-13095
62.934540,167,-1293,-12997
62.950165,169,-1345,-13213
62.965790,173,-1386,-13111
62.981415,196,-1304,-12929
62.997040,185,-1370,-13220
63.012665,174,-1397,-13151
63.028290,201,-1329,-12913
63.043915,201,-1407,-13210
63.059540,187,-1431,-13222
63.075165,187,-1332,-12904
63.090790,169,-1352,-13088
63.106415,139,-1384,-13236
63.122040,141,-1313,-12970
63.137665,164,-1307,-13038
63.153290,164,-1370,-13260
63.168915,182,-1343,-13026
63.184540,216,-1338,-12970
63.200165,187,-1415,-13235
63.215790,155,-1370,-13044
63.231415,153,-1307,-12929
63.247040,151,-1375,-13260
63.262665,164,-1366,-13151
63.278290,160,-1300,-12904
63.293915,157,-1361,-13138
63.309540,173,-1384,-13197
63.325165,171,-1327,-12988
63.340790,183,-1332,-13058
63.356415,207,-1368,-13228
63.372040,212,-1381,-13090
63.387665,203,-1341,-12935
63.403290,171,-1377,-13145
63.418915,148,-1404,-13145
63.434540,153,-1297,-12945
63.450165,151,-1320,-13172
63.465790,162,-1363,-13208
63.481415,183,-1281,-12951
63.497040,185,-1332,-13111
63.512665,178,-1400,-13188
63.528290,185,-1325,-12926
63.543915,192,-1350,-13056
63.559540,187,-1427,-13267
63.575165,199,-1349,-13013
63.590790,180,-1318,-13010
63.606415,137,-1382,-13245
63.622040,151,-1322,-13038
63.637665,160,-1306,-12967
63.653290,146,-1375,-13217
63.668915,180,-1345,-13129
63.684540,212,-1329,-12976
63.700165,196,-1372,-13128
63.715790,182,-1390,-13174
63.731415,180,-1347,-12958
63.747040,155,-1331,-13028
63.762665,119,-1390,-13251
63.778290,139,-1354,-13038
63.793915,173,-1316,-12995
63.809540,167,-1372,-13235
63.825165,176,-1329,-13065
63.840790,192,-1299,-12963
63.856415,183,-1386,-13186
63.872040,192,-1397,-13135
63.887665,205,-1350,-12988
63.903290,178,-1374,-13108
63.918915,171,-1390,-13145
63.934540,180,-1357,-13024
63.950165,157,-1356,-13085
63.965790,149,-1347,-13131
63.981415,146,-1320,-13042
63.997040,151,-1356,-13108
64.012665,171,-1357,-13126
64.028290,160,-1325,-13006
64.043915,180,-1370,-13078
64.059540,203,-1391,-13149
64.075165,164,-1336,-13031
64.090790,139,-1331,-13054
64.106415,139,-1363,-13154
64.122040,137,-1343,-13067
64.137665,155,-1331,-13054
64.153290,178,-1356,-13151
64.168915,198,-1357,-13065
64.184540,212,-1347,-13022
64.200165,212,-1382,-13161
64.215790,189,-1384,-13090
64.231415,169,-1343,-12986
64.247040,176,-1390,-13181
64.262665,167,-1375,-13104
64.278290,144,-1279,-12942
64.293915,155,-1347,-13194
64.309540,173,-1372,-13136
64.325165,158,-1293,-12974
64.340790,155,-1375,-13213
64.356415,191,-1391,-13092
64.372040,212,-1316,-12935
64.387665,198,-1407,-13213
64.403290,201,-1402,-13103
64.418915,208,-1316,-12954
64.434540,173,-1393,-13242
64.450165,141,-1349,-13106
64.465790,135,-1266,-12940
64.481415,117,-1368,-13220
64.497040,142,-1363,-13124
64.512665,192,-1293,-12929
64.528290,207,-1349,-13174
64.543915,216,-1397,-13215
64.559540,201,-1365,-12940
64.575165,171,-1349,-13019
64.590790,153,-1420,-13244
64.606415,148,-1375,-12999
64.622040,157,-1286,-12981
64.637665,137,-1388,-13310
64.653290,119,-1341,-13024
64.668915,151,-1238,-12924
64.684540,162,-1386,-13317
64.700165,173,-1356,-13051
64.715790,207,-1277,-12908
64.731415,196,-1411,-13274
64.747040,194,-1374,-13095
64.762665,201,-1327,-12936
64.778290,174,-1402,-13161
64.793915,167,-1388,-13111
64.809540,149,-1365,-12990
64.825165,121,-1347,-13088
64.840790,130,-1352,-13194
64.856415,144,-1331,-13049
64.872040,183,-1279,-12990
64.887665,196,-1327,-13254
64.903290,174,-1320,-13072
64.918915,255,-1336,-12860
64.934540,280,-1532,-13326
64.950165,198,-1538,-13165
64.965790,164,-1354,-12685
64.981415,69,-1424,-13195
64.997040,-6,-1404,-13249
65.012665,98,-1133,-12774
65.028290,182,-1184,-13258
65.043915,198,-1291,-13386
65.059540,251,-1184,-12863
65.075165,246,-1332,-13095
65.090790,187,-1486,-13197
65.106415,178,-1418,-12845
65.122040,180,-1456,-13040
65.137665,162,-1484,-13274
65.153290,153,-1388,-13090
65.168915,146,-1306,-12969
65.184540,121,-1311,-13174
65.200165,116,-1334,-13194
65.215790,153,-1220,-12849
65.231415,185,-1232,-13186
65.247040,208,-1391,-13413
65.262665,283,-1274,-12760
65.278290,303,-1372,-13104
65.293915,232,-1599,-13417
65.309540,194,-1390,-12678
65.325165,112,-1425,-13029
65.340790,42,-1504,-13365
65.356415,110,-1249,-12837
65.372040,167,-1299,-13145
65.387665,196,-1365,-13331
65.403290,237,-1216,-12901
65.418915,233,-1274,-13044
65.434540,207,-1331,-13215
65.450165,185,-1265,-13015
65.465790,182,-1290,-13035
65.481415,203,-1382,-13229
65.497040,187,-1427,-13111
65.512665,135,-1400,-12906
65.528290,101,-1463,-13142
65.543915,110,-1474,-13136
65.559540,144,-1325,-12908
65.575165,160,-1352,-13245
65.590790,199,-1343,-13228
65.606415,274,-1204,-12890
65.622040,280,-1300,-13186
65.637665,235,-1343,-13194
65.653290,203,-1254,-12887
65.668915,151,-1393,-13185
65.684540,98,-1474,-13217
65.700165,98,-1368,-12887
65.715790,116,-1429,-13079
65.731415,149,-1459,-13172
65.747040,198,-1352,-12979
65.762665,201,-1329,-13106
65.778290,191,-1306,-13201
65.793915,203,-1252,-13070
65.809540,214,-1274,-13085
65.825165,212,-1318,-13151
65.840790,201,-1329,-13086
65.856415,194,-1345,-13040
65.872040,160,-1391,-13122
65.887665,108,-1420,-13113
65.903290,99,-1397,-12997
65.918915,126,-1422,-13117
65.934540,148,-1425,-13140
65.950165,185,-1304,-12967
65.965790,233,-1284,-13140
65.981415,249,-1299,-13204
65.997040,241,-1224,-13008
66.012665,217,-1300,-13167
66.028290,162,-1388,-13172
66.043915,132,-1350,-12924
66.059540,149,-1416,-13095
66.075165,144,-1440,-13140
66.090790,151,-1368,-13001
66.106415,176,-1393,-13135
66.122040,178,-1379,-13138
66.137665,176,-1309,-13028
66.153412,185,-1293,-13029
66.169037,216,-1306,-13113
66.184662,237,-1320,-13161
66.200287,230,-1290,-13078
66.215912,196,-1304,-13124
66.231537,149,-1368,-13160
66.247162,133,-1382,-12986
66.262787,123,-1416,-13036
66.278412,108,-1441,-13126
66.294037,139,-1388,-13015
66.309662,185,-1370,-13122
66.325287,199,-1343,-13188
66.340912,217,-1274,-13042
66.356537,219,-1299,-13095
66.372162,189,-1345,-13131
66.387787,180,-1318,-13011
66.403412,178,-1336,-13083
66.419037,166,-1381,-13163
66.434662,171,-1366,-13078
66.450287,166,-1391,-13085
66.465912,148,-1407,-13094
66.481537,139,-1382,-13028
66.497162,146,-1372,-13044
66.512787,164,-1332,-13106
66.528412,176,-1302,-13128
66.544037,208,-1293,-13113
66.559662,224,-1295,-13135
66.575287,189,-1320,-13113
66.590912,169,-1320,-13015
66.606537,158,-1359,-13079
66.622162,139,-1404,-13120
66.637787,155,-1370,-13020
66.653412,162,-1397,-13133
66.669037,160,-1431,-13135
66.684662,191,-1361,-12990
66.700287,183,-1350,-13129
66.715912,173,-1332,-13119
66.731537,189,-1265,-13020
66.747162,174,-1297,-13169
66.762787,171,-1315,-13119
66.778412,171,-1320,-13031
66.794037,155,-1388,-13117
66.809662,167,-1399,-13078
66.825287,158,-1395,-13056
66.840912,133,-1397,-13067
66.856537,139,-1368,-13086
66.872162,155,-1372,-13138
66.887787,187,-1331,-13013
66.903412,192,-1316,-13081
66.919037,187,-1375,-13192
66.934662,214,-1299,-12985
66.950287,198,-1309,-13149
66.965912,157,-1390,-13224
66.981537,166,-1313,-12895
66.997162,157,-1388,-13110
67.012787,142,-1449,-13195
67.028412,158,-1329,-12878
67.044037,155,-1384,-13119
67.059662,169,-1416,-13261
67.075287,189,-1297,-12986
67.090912,176,-1316,-13072
67.106537,180,-1347,-13181
67.122162,191,-1306,-13028
67.137787,196,-1322,-13040
67.153290,191,-1343,-13140
67.168915,169,-1363,-13094
67.184540,173,-1393,-13036
67.200165,160,-1400,-13103
67.215790,142,-1397,-13111
67.231415,151,-1377,-12990
67.247040,167,-1359,-13063
67.262665,205,-1368,-13197
67.278290,208,-1322,-13031
67.293915,199,-1295,-13054
67.309540,199,-1372,-13229
67.325165,185,-1341,-13010
67.340790,183,-1327,-13010
67.356415,160,-1415,-13197
67.372040,164,-1359,-13017
67.387665,171,-1354,-13060
67.403290,151,-1402,-13186
67.418915,183,-1340,-13013
67.434540,198,-1375,-13060
67.450165,183,-1379,-13119
67.465790,183,-1304,-13051
67.481415,189,-1336,-13115
67.497040,199,-1322,-13099
67.512665,199,-1325,-13104
67.528290,182,-1375,-13099
67.543915,158,-1352,-13020
67.559540,142,-1379,-13104
67.575165,151,-1382,-13094
67.590790,174,-1341,-13058
67.606415,178,-1365,-13158
