;Title, http://www.gcdataconcepts.com, x2-2,Kionix KXRB5-2050
;Version, 1102, Build date, Oct  6 2015,  SN:CCDC10023F56AE8
;Start_time, 2007-01-05, 21:37:14.746
;Temperature, -999.00, deg C,  Vbat, 4154, mv
;Gain, high
;SampleRate, 64,Hz
;Deadband, 0, counts
;DeadbandTimeout, 0,sec
;Headers, time,Ax,Ay,Az
0.427032,614,-117,-13254
0.442657,524,-340,-13044
0.458282,466,-606,-12965
0.473907,539,-791,-13145
0.489532,707,-652,-13281
0.505157,840,-375,-13217
0.520782,857,-92,-13153
0.552032,728,-59,-13195
0.567657,614,-274,-13003
0.583282,541,-459,-13042
0.598907,524,-604,-13329
0.614532,623,-477,-13211
0.630157,685,-213,-13211
0.645782,687,-104,-13235
0.661407,705,-52,-12924
0.677032,698,-240,-13028
0.692657,733,-536,-13288
0.708282,794,-570,-13254
0.723907,774,-427,-13294
0.739532,701,-172,-13224
0.755157,607,46,-12981
0.770782,541,14,-12936
0.786407,576,-140,-13111
0.802032,669,-356,-13278
0.817657,757,-497,-13308
0.833282,812,-388,-13313
0.848907,764,-174,-13174
0.864532,671,5,-12903
0.880157,673,0,-12944
0.895782,694,-150,-13154
0.911407,703,-279,-13240
0.927032,719,-363,-13370
0.942657,680,-272,-13360
0.958282,610,-43,-13060
0.973907,548,74,-12913
0.989532,562,0,-12981
1.005157,687,-102,-13061
1.020782,826,-181,-13290
1.036407,882,-293,-13453
1.052032,808,-238,-13299
1.067657,678,-31,-13099
1.083282,551,62,-12951
1.098907,466,64,-12881
1.114532,524,-8,-13081
1.130157,685,-159,-13340
1.145782,785,-197,-13411
1.161407,773,-145,-13344
1.177032,685,-88,-13135
1.192657,608,42,-12928
1.208282,610,108,-12929
1.223907,673,39,-13065
1.239532,737,-49,-13265
1.255157,764,-125,-13413
1.270782,715,-154,-13347
1.286407,596,-68,-13133
1.302032,476,89,-12945
1.317657,460,166,-12942
1.333282,567,99,-13049
1.348907,701,42,-13201
1.364532,821,-18,-13410
1.380157,830,-97,-13356
1.395782,708,-31,-13136
1.411407,583,53,-13083
1.427032,469,117,-12965
1.442657,460,153,-12963
1.458282,574,14,-13226
1.473907,653,-56,-13319
1.489532,689,-29,-13295
1.505157,682,-33,-13274
1.520782,605,94,-13088
1.536407,551,217,-12933
1.552032,551,203,-12970
1.567657,615,141,-13120
1.583282,699,53,-13254
1.598907,707,10,-13340
1.614532,651,21,-13349
1.630157,541,55,-13126
1.645782,417,124,-12929
1.661407,426,148,-13003
1.677032,512,126,-13053
1.692657,624,124,-13174
1.708282,778,66,-13426
1.723907,790,37,-13354
1.739532,665,108,-13129
1.755157,546,128,-13095
1.770782,448,124,-13010
1.786407,432,162,-12958
1.802032,532,123,-13201
1.817657,635,35,-13363
1.833282,674,26,-13292
1.848907,649,58,-13267
1.864532,564,119,-13144
1.880157,503,208,-12945
1.895782,526,230,-12994
1.911407,562,174,-13117
1.927032,617,112,-13211
1.942657,671,62,-13340
1.958282,626,73,-13324
1.973907,537,128,-13167
1.989532,444,178,-13013
2.005157,423,201,-12967
2.020782,505,185,-13031
2.036407,583,162,-13170
2.052032,682,141,-13344
2.067657,715,124,-13326
2.083282,615,123,-13185
2.098907,528,112,-13113
2.114532,439,155,-12967
2.130157,424,216,-12967
2.145782,535,160,-13192
2.161407,578,112,-13244
2.177032,617,116,-13276
2.192657,658,80,-13310
2.208282,571,137,-13119
2.223907,532,228,-13019
2.239532,530,226,-13038
2.255157,512,217,-13063
2.270782,594,146,-13208
2.286407,632,76,-13290
2.302032,607,96,-13278
2.317657,603,96,-13215
2.333282,523,157,-13058
2.348907,482,224,-13001
2.364532,519,212,-13045
2.380157,574,224,-13140
2.395782,673,187,-13281
2.411407,680,162,-13270
2.427032,630,192,-13224
2.442657,571,166,-13163
2.458282,474,183,-12988
2.473907,507,228,-13024
2.489532,601,203,-13179
2.505157,619,187,-13197
2.520782,664,162,-13308
2.536407,658,135,-13294
2.552032,541,191,-13070
2.567657,498,255,-13061
2.583282,524,287,-13088
2.598907,517,316,-13029
2.614532,582,262,-13170
2.630157,665,158,-13297
2.645782,665,146,-13256
2.661407,639,185,-13204
2.677032,564,237,-13113
2.692657,496,289,-13063
2.708282,499,260,-13069
2.723907,514,248,-13108
2.739532,585,232,-13261
2.755157,644,183,-13294
2.770782,610,239,-13208
2.786407,598,253,-13178
2.802032,560,224,-13051
2.817657,528,253,-13026
2.833282,578,210,-13172
2.848907,599,182,-13224
2.864532,628,174,-13260
2.880157,628,151,-13245
2.895782,542,201,-13145
2.911407,501,226,-13094
2.927032,483,241,-13024
2.942657,517,266,-13079
2.958282,630,198,-13240
2.973907,665,176,-13220
2.989532,662,178,-13220
3.005157,640,126,-13251
3.020782,562,158,-13104
3.036407,514,199,-13026
3.052032,505,192,-13078
3.067657,526,203,-13135
3.083282,598,164,-13217
3.098907,628,133,-13249
3.114532,601,171,-13222
3.130157,564,192,-13154
3.145782,524,205,-13056
3.161407,508,201,-13065
3.177032,528,169,-13131
3.192657,573,155,-13170
3.208282,608,124,-13263
3.223907,589,94,-13254
3.239532,526,137,-13138
3.255157,521,180,-13108
3.270782,541,196,-13056
3.286407,564,228,-13040
3.302032,639,219,-13176
3.317657,669,174,-13253
3.333282,651,121,-13238
3.348907,624,89,-13215
3.364532,512,135,-13136
3.380157,426,180,-13074
3.395782,439,171,-13054
3.411407,449,174,-13092
3.427032,533,151,-13220
3.442657,633,117,-13238
3.458282,655,155,-13211
3.473907,687,185,-13233
3.489532,639,221,-13083
3.505157,566,251,-13033
3.520782,585,189,-13160
3.536407,560,153,-13124
3.552032,523,157,-13188
3.567657,548,108,-13331
3.583282,501,124,-13181
3.598907,469,194,-13076
3.614532,523,201,-13110
3.630157,544,230,-13051
3.645782,624,255,-13122
3.661407,710,210,-13238
3.677032,682,178,-13222
3.692657,667,132,-13211
3.708282,592,137,-13147
3.723907,478,212,-13092
3.739532,462,216,-13083
3.755157,471,219,-13067
3.770782,546,230,-13199
3.786407,628,198,-13245
3.802032,610,224,-13172
3.817657,640,228,-13211
3.833282,655,214,-13131
3.848907,578,267,-13045
3.864532,562,237,-13136
3.880157,562,183,-13161
3.895782,564,180,-13203
3.911407,564,135,-13245
3.927032,517,167,-13167
3.942657,528,226,-13135
3.958282,574,244,-13078
3.973907,615,301,-13036
3.989532,689,301,-13176
4.005157,696,242,-13244
4.020782,630,205,-13199
4.036407,573,158,-13229
4.052032,496,132,-13179
4.067657,437,157,-13056
4.083282,432,173,-13094
4.098907,485,173,-13165
4.114532,642,212,-13138
4.130157,764,257,-13194
4.145782,774,246,-13261
4.161407,714,255,-13167
4.177032,607,269,-13120
4.192657,512,210,-13145
4.208282,426,180,-13079
4.223907,410,151,-13108
4.239532,458,99,-13231
4.255157,498,105,-13217
4.270782,548,128,-13172
4.286407,615,157,-13188
4.302032,651,219,-13099
4.317657,669,285,-13056
4.333282,715,266,-13185
4.348907,673,224,-13208
4.364532,567,203,-13172
4.380157,505,110,-13229
4.395782,417,57,-13163
4.411407,380,105,-13072
4.427032,460,126,-13131
4.442657,542,160,-13140
4.458282,630,208,-13153
4.473907,728,196,-13235
4.489532,753,199,-13228
4.505157,715,214,-13181
4.520782,610,207,-13122
4.536407,512,201,-13103
4.552032,471,164,-13138
4.567657,430,130,-13119
4.583282,476,101,-13185
4.598907,526,57,-13260
4.614532,530,114,-13183
4.630157,615,192,-13153
4.645782,642,216,-13115
4.661407,639,262,-13081
4.677032,692,260,-13154
4.692657,660,233,-13186
4.708282,605,192,-13236
4.723907,546,114,-13235
4.739532,451,114,-13128
4.755157,426,128,-13147
4.770782,451,126,-13126
4.786407,512,191,-13061
4.802032,628,224,-13208
4.817657,710,212,-13249
4.833282,728,230,-13169
4.848907,710,214,-13213
4.864532,623,208,-13176
4.880157,533,228,-13079
4.895782,503,189,-13106
4.911407,466,151,-13147
4.927032,464,130,-13172
4.942657,539,117,-13213
4.958282,587,155,-13210
4.973907,603,217,-13165
4.989532,633,273,-13106
5.005157,649,305,-13099
5.020782,664,294,-13144
5.036407,651,262,-13156
5.052032,599,224,-13217
5.067657,553,153,-13236
5.083282,483,128,-13131
5.098907,464,155,-13122
5.114532,492,158,-13111
5.130157,514,205,-13061
5.145782,615,235,-13163
5.161407,671,221,-13204
5.177154,667,248,-13161
5.192779,708,230,-13199
5.208404,646,212,-13156
5.224029,539,226,-13101
5.239654,507,187,-13119
5.255279,485,158,-13119
5.270904,516,141,-13190
5.286529,548,112,-13226
5.302154,549,162,-13178
5.317779,599,208,-13169
5.333404,617,224,-13115
5.349029,632,258,-13103
5.364654,649,242,-13151
5.380279,607,230,-13151
5.395904,608,198,-13215
5.411529,582,124,-13228
5.427154,496,112,-13140
5.442779,482,116,-13124
5.458404,491,130,-13113
5.474029,526,185,-13119
5.489654,605,194,-13183
5.505279,640,196,-13194
5.520904,662,221,-13197
5.536529,655,203,-13203
5.552154,578,203,-13128
5.567779,537,201,-13110
5.583404,544,137,-13154
5.599029,510,105,-13119
5.614654,507,116,-13163
5.630279,553,108,-13238
5.645904,557,133,-13178
5.661529,574,169,-13147
5.677154,605,212,-13142
5.692779,608,262,-13103
5.708404,632,235,-13140
5.724029,617,185,-13181
5.739654,573,174,-13190
5.755279,549,146,-13199
5.770904,507,133,-13156
5.786529,505,141,-13144
5.802154,512,137,-13122
5.817779,503,182,-13106
5.833404,599,182,-13208
5.849029,655,173,-13190
5.864654,632,235,-13158
5.880279,664,203,-13228
5.895904,619,189,-13140
5.911529,535,232,-13090
5.927154,519,176,-13154
5.942779,499,164,-13129
5.958404,524,162,-13165
5.974029,564,110,-13222
5.989654,558,151,-13170
6.005279,589,192,-13161
6.020904,608,201,-13147
6.036529,614,249,-13106
6.052154,633,253,-13140
6.067779,614,219,-13172
6.083404,599,187,-13192
6.099029,562,164,-13192
6.114654,510,164,-13179
6.130279,510,149,-13160
6.145904,496,173,-13079
6.161529,519,210,-13103
6.177032,601,196,-13179
6.192657,632,214,-13151
6.208282,658,223,-13188
6.223907,658,214,-13206
6.239532,591,232,-13115
6.255157,548,224,-13124
6.270782,519,196,-13133
6.286407,494,191,-13117
6.302032,528,176,-13186
6.317657,558,153,-13195
6.333282,578,162,-13174
6.348907,610,189,-13197
6.364532,601,232,-13126
6.380157,601,260,-13099
6.395782,626,230,-13170
6.411407,598,208,-13149
6.427032,578,212,-13170
6.442657,587,162,-13238
6.458282,532,142,-13163
6.473907,508,173,-13122
6.489532,532,164,-13142
6.505157,539,182,-13124
6.520782,599,192,-13161
6.536407,632,196,-13188
6.552032,623,221,-13183
6.567657,642,199,-13183
6.583282,599,201,-13122
6.598907,541,208,-13120
6.614532,535,182,-13145
6.630157,516,178,-13111
6.645782,537,149,-13178
6.661407,576,124,-13229
6.677032,567,151,-13149
6.692657,598,166,-13129
6.708282,619,178,-13161
6.723907,614,214,-13131
6.739532,608,216,-13113
6.755157,583,194,-13179
6.770782,574,166,-13211
6.786407,549,151,-13158
6.802032,523,157,-13165
6.817657,542,144,-13165
6.833282,537,157,-13097
6.848907,542,176,-13140
6.864532,598,174,-13199
6.880157,635,185,-13169
6.895782,642,198,-13188
6.911407,632,192,-13201
6.927032,592,191,-13117
6.942657,541,214,-13106
6.958282,530,167,-13154
6.973907,548,180,-13151
6.989532,544,262,-13192
7.005157,560,164,-13208
7.020782,576,123,-13149
7.036407,592,212,-13154
7.052032,614,219,-13147
7.067657,603,230,-13111
7.083282,615,210,-13169
7.098907,589,173,-13183
7.114532,557,187,-13156
7.130157,578,171,-13170
7.145782,546,162,-13160
7.161407,524,167,-13136
7.177032,533,173,-13110
7.192657,569,203,-13136
7.208282,637,196,-13181
7.223907,619,208,-13153
7.239532,623,237,-13176
7.255157,628,216,-13192
7.270782,553,219,-13133
7.286407,544,214,-13145
7.302032,541,183,-13138
7.317657,517,173,-13124
7.333282,544,139,-13190
7.348907,571,132,-13188
7.364532,601,171,-13153
7.380157,624,192,-13165
7.395782,630,216,-13128
7.411407,596,241,-13101
7.427032,564,237,-13144
7.442657,585,210,-13165
7.458282,580,178,-13185
7.473907,548,157,-13183
7.489532,537,176,-13153
7.505157,548,183,-13160
7.520782,549,169,-13113
7.536407,555,208,-13128
7.552032,610,198,-13188
7.567657,617,191,-13120
7.583282,635,224,-13206
7.598907,658,173,-13247
7.614532,555,192,-13056
7.630157,544,210,-13167
7.645782,560,144,-13206
7.661407,478,212,-13022
7.677032,558,210,-13217
7.692657,610,126,-13247
7.708282,542,185,-13072
7.723907,605,182,-13219
7.739532,603,180,-13179
7.755157,567,241,-13070
7.770782,614,180,-13199
7.786407,583,174,-13167
7.802032,560,203,-13135
7.817657,576,155,-13206
7.833282,539,158,-13156
7.848907,530,169,-13135
7.864532,544,148,-13160
7.880157,548,164,-13149
7.895782,574,176,-13174
7.911407,598,174,-13183
7.927032,612,192,-13169
7.942657,607,198,-13163
7.958282,587,183,-13170
7.973907,571,174,-13156
7.989532,539,191,-13117
8.005157,542,187,-13167
8.020782,558,149,-13192
8.036407,558,166,-13136
8.052032,589,189,-13183
8.067657,610,174,-13183
8.083282,594,183,-13104
8.098907,583,192,-13163
8.114532,582,183,-13195
8.130157,557,191,-13111
8.145782,551,182,-13170
8.161407,560,153,-13213
8.177032,542,176,-13110
8.192657,566,189,-13154
8.208282,599,164,-13194
8.223907,578,196,-13110
8.239532,596,203,-13176
8.255157,617,183,-13215
8.270782,596,214,-13156
8.286407,596,199,-13170
8.302032,567,199,-13167
8.317657,557,205,-13136
8.333282,578,166,-13142
8.348907,576,185,-13179
8.364532,589,196,-13185
8.380157,585,176,-13131
8.395782,587,192,-13179
8.411407,601,191,-13188
8.427032,566,207,-13076
8.442657,585,224,-13153
8.458282,605,183,-13220
8.473907,542,191,-13119
8.489532,560,182,-13170
8.505157,569,148,-13206
8.520782,541,189,-13117
8.536407,583,191,-13140
8.552032,578,192,-13154
8.567657,578,210,-13142
8.583282,621,169,-13178
8.598907,598,182,-13160
8.614532,589,194,-13174
8.630157,587,176,-13185
8.645782,555,205,-13140
8.661407,564,189,-13172
8.677032,566,169,-13153
8.692657,571,201,-13119
8.708282,615,173,-13210
8.723907,598,169,-13163
8.739532,558,232,-13119
8.755157,583,198,-13208
8.770782,571,167,-13124
8.786407,546,235,-13108
8.802032,591,207,-13204
8.817657,566,166,-13122
8.833282,560,192,-13165
8.848907,605,158,-13231
8.864532,553,180,-13094
8.880157,574,196,-13151
8.895782,587,144,-13199
8.911407,524,194,-13079
8.927032,587,192,-13165
8.942657,596,153,-13195
8.958282,558,203,-13126
8.973907,596,183,-13181
8.989532,567,176,-13156
9.005157,573,203,-13122
9.020782,592,169,-13147
9.036407,566,180,-13145
9.052032,591,185,-13174
9.067657,582,171,-13172
9.083282,578,171,-13172
9.098907,583,169,-13161
9.114532,542,207,-13126
9.130157,571,187,-13160
9.145782,578,167,-13147
9.161407,562,198,-13140
9.177032,592,169,-13203
9.192657,567,169,-13145
9.208282,555,192,-13135
9.223907,589,153,-13210
9.239532,564,167,-13131
9.255157,569,210,-13104
9.270782,603,189,-13183
9.286407,574,187,-13156
9.302032,562,198,-13142
9.317657,578,171,-13190
9.333282,574,153,-13154
9.348907,549,180,-13113
9.364532,558,194,-13160
9.380157,589,192,-13167
9.395782,591,210,-13151
9.411407,587,201,-13156
9.427032,574,189,-13154
9.442657,573,192,-13167
9.458282,578,176,-13144
9.473907,576,182,-13158
9.489532,582,191,-13179
9.505157,567,196,-13133
9.520782,566,187,-13167
9.536407,576,183,-13185
9.552032,562,221,-13135
9.567657,592,191,-13149
9.583282,592,174,-13154
9.598907,566,221,-13169
9.614532,585,185,-13153
9.630157,567,185,-13120
9.645782,576,201,-13204
9.661407,578,189,-13154
9.677032,548,230,-13094
9.692657,594,187,-13224
9.708282,592,158,-13154
9.723907,571,235,-13092
9.739532,621,192,-13236
9.755157,573,166,-13144
9.770782,535,223,-13088
9.786407,591,166,-13224
9.802032,562,166,-13129
9.817657,566,221,-13111
9.833282,619,173,-13238
9.848907,558,176,-13149
9.864532,546,207,-13129
9.880157,589,180,-13206
9.895782,549,199,-13140
9.911407,558,205,-13135
9.927032,585,180,-13163
9.942657,574,208,-13133
9.958282,598,180,-13170
9.973907,585,144,-13186
9.989532,557,178,-13144
10.005157,569,173,-13129
10.020782,578,176,-13154
10.036407,569,191,-13172
10.052032,551,201,-13136
10.067657,574,207,-13172
10.083282,610,151,-13213
10.098907,576,174,-13129
10.114532,558,214,-13160
10.130157,571,153,-13179
10.145782,544,182,-13095
10.161407,578,201,-13194
10.177032,585,149,-13190
10.192657,535,183,-13103
10.208282,599,164,-13228
10.223907,592,144,-13169
10.239532,535,219,-13063
10.255157,591,185,-13206
10.270782,573,162,-13176
10.286407,555,216,-13113
10.302032,607,183,-13213
10.317657,578,162,-13178
10.333282,558,176,-13124
10.348907,566,178,-13174
10.364532,573,196,-13179
10.380157,583,199,-13133
10.395782,571,187,-13142
10.411407,574,176,-13199
10.427032,566,192,-13158
10.442657,569,205,-13131
10.458282,599,173,-13211
10.473907,587,173,-13165
10.489532,566,203,-13110
10.505157,589,176,-13194
10.520782,591,167,-13167
10.536407,564,199,-13131
10.552032,585,182,-13219
10.567657,578,187,-13181
10.583282,555,210,-13129
10.598907,576,167,-13176
10.614532,562,180,-13136
10.630157,557,217,-13160
10.645782,594,167,-13215
10.661407,574,160,-13129
10.677032,557,210,-13135
10.692657,574,182,-13183
10.708282,567,171,-13138
10.723907,582,194,-13160
10.739532,578,191,-13165
10.755157,567,205,-13144
10.770782,594,201,-13192
10.786407,564,189,-13169
10.802032,553,199,-13136
10.817657,592,191,-13156
10.833282,574,178,-13131
10.848907,578,178,-13149
10.864532,592,192,-13179
10.880157,567,210,-13154
10.895782,573,187,-13172
10.911407,574,173,-13161
10.927032,573,205,-13138
10.942657,583,189,-13160
10.958282,564,169,-13138
10.973907,551,194,-13156
10.989532,567,176,-13178
11.005157,582,167,-13140
11.020782,591,173,-13154
11.036407,578,167,-13160
11.052032,564,189,-13126
11.067657,591,182,-13190
11.083282,599,160,-13188
11.098907,564,198,-13129
11.114532,576,198,-13192
11.130157,573,169,-13154
11.145782,546,198,-13103
11.161407,580,185,-13186
11.177032,574,189,-13147
11.192657,567,223,-13129
11.208282,598,169,-13190
11.223907,571,176,-13149
11.239532,573,203,-13161
11.255157,576,180,-13165
11.270782,560,203,-13135
11.286407,582,178,-13185
11.302032,569,174,-13151
11.317657,576,203,-13145
11.333282,615,155,-13201
11.348907,583,164,-13144
11.364532,564,191,-13138
11.380157,573,180,-13156
11.395782,564,199,-13131
11.411407,585,183,-13163
11.427032,574,174,-13138
11.442657,558,191,-13158
11.458282,596,148,-13206
11.473907,553,167,-13104
11.489532,549,210,-13145
11.505157,605,167,-13208
11.520782,562,198,-13081
11.536407,571,224,-13160
11.552032,599,164,-13229
11.567657,557,185,-13097
11.583282,583,203,-13181
11.598907,599,164,-13213
11.614532,544,198,-13069
11.630157,582,203,-13163
11.645782,607,167,-13211
11.661407,549,203,-13095
11.677032,571,201,-13172
11.692657,587,167,-13217
11.708282,574,196,-13126
11.723907,594,196,-13144
11.739532,574,187,-13176
11.755157,553,207,-13129
11.770782,557,178,-13117
11.786407,571,176,-13199
11.802032,585,189,-13185
11.817657,562,189,-13090
11.833282,599,185,-13197
11.848907,605,171,-13217
11.864532,541,208,-13060
11.880157,576,207,-13185
11.895782,615,153,-13224
11.911407,560,182,-13058
11.927032,562,183,-13183
11.942657,583,148,-13224
11.958282,566,201,-13086
11.973907,599,178,-13178
11.989532,580,153,-13188
12.005157,551,216,-13117
12.020782,591,199,-13188
12.036407,582,198,-13170
12.052032,573,226,-13126
12.067657,585,189,-13156
12.083282,566,169,-13154
12.098907,551,169,-13169
12.114532,558,166,-13169
12.130157,562,167,-13151
12.145782,578,166,-13169
12.161407,583,185,-13154
12.177032,566,203,-13151
12.192657,578,199,-13153
12.208282,580,199,-13131
12.223907,578,192,-13167
12.239532,591,183,-13163
12.255157,569,189,-13149
12.270782,578,174,-13195
12.286407,571,166,-13131
12.302032,535,196,-13119
12.317657,587,174,-13213
12.333282,589,153,-13145
12.348907,551,205,-13128
12.364532,587,196,-13201
12.380157,562,187,-13120
12.395782,555,208,-13135
12.411407,598,182,-13197
12.427032,564,203,-13126
12.442657,573,194,-13158
12.458282,592,151,-13183
12.473907,564,185,-13131
12.489532,591,178,-13167
12.505157,569,174,-13147
12.520782,533,219,-13133
12.536407,569,196,-13188
12.552032,566,201,-13144
12.567657,574,217,-13154
12.583282,594,162,-13204
12.598907,569,178,-13154
12.614532,574,196,-13153
12.630157,557,171,-13160
12.645782,541,187,-13154
12.661407,589,169,-13165
12.677032,574,182,-13131
12.692657,573,196,-13172
12.708282,596,155,-13178
12.723907,578,182,-13122
12.739532,592,196,-13160
12.755157,576,187,-13142
12.770782,564,216,-13131
12.786407,582,180,-13203
12.802032,560,174,-13156
12.817657,573,208,-13144
12.833282,599,162,-13203
12.848907,566,173,-13138
12.864532,555,216,-13140
12.880157,582,178,-13188
12.895782,567,191,-13117
12.911407,573,203,-13149
12.927032,594,160,-13201
12.942657,567,183,-13131
12.958282,564,196,-13172
12.973907,562,176,-13181
12.989532,548,203,-13099
13.005157,582,191,-13154
13.020782,582,182,-13185
13.036407,569,199,-13142
13.052032,589,173,-13151
13.067657,583,182,-13165
13.083282,573,183,-13163
13.098907,558,174,-13140
13.114532,558,201,-13151
13.130157,576,187,-13181
13.145782,566,182,-13140
13.161407,573,198,-13167
13.177032,573,173,-13204
13.192657,544,192,-13117
13.208282,594,198,-13156
13.223907,614,139,-13206
13.239532,549,185,-13119
13.255157,576,210,-13176
13.270782,612,169,-13197
13.286407,574,194,-13111
13.302032,571,194,-13176
13.317657,573,166,-13170
13.333282,549,185,-13126
13.348907,562,171,-13197
13.364532,557,166,-13142
13.380157,558,205,-13135
13.395782,599,173,-13211
13.411407,580,180,-13124
13.427032,578,214,-13131
13.442657,599,167,-13195
13.458282,562,185,-13131
13.473907,569,191,-13185
13.489532,573,144,-13197
13.505157,530,191,-13104
13.520782,569,198,-13185
13.536407,576,182,-13183
13.552032,546,217,-13086
13.567657,594,192,-13158
13.583282,589,174,-13172
13.598907,567,198,-13135
13.614532,596,189,-13176
13.630157,574,192,-13167
13.645782,562,192,-13154
13.661407,567,180,-13138
13.677032,555,194,-13120
13.692657,596,169,-13169
13.708282,603,158,-13167
13.723907,576,199,-13158
13.739532,591,191,-13186
13.755157,567,198,-13131
13.770782,560,216,-13126
13.786407,592,185,-13169
13.802032,571,207,-13111
13.817657,589,198,-13161
13.833282,632,133,-13211
13.848907,574,182,-13128
13.864532,574,210,-13174
13.880157,591,174,-13163
13.895782,542,219,-13086
13.911407,576,201,-13181
13.927032,591,182,-13156
13.942657,583,210,-13117
13.958282,615,155,-13224
13.973907,591,173,-13179
13.989532,580,217,-13124
14.005157,566,183,-13170
14.020782,539,187,-13153
14.036407,551,182,-13115
14.052032,558,189,-13153
14.067657,583,201,-13222
14.083282,599,167,-13163
14.098907,591,198,-13135
14.114532,603,216,-13199
14.130157,569,189,-13128
14.145782,548,194,-13115
14.161407,569,173,-13206
14.177032,539,174,-13149
14.192657,553,182,-13147
14.208282,596,149,-13204
14.223907,569,171,-13138
14.239532,582,199,-13140
14.255157,598,196,-13170
14.270782,567,203,-13131
14.286407,574,192,-13172
14.302032,562,180,-13161
14.317657,546,203,-13120
14.333282,587,174,-13195
14.348907,567,135,-13145
14.364532,528,187,-13094
14.380157,576,196,-13197
14.395782,585,183,-13142
14.411407,566,232,-13101
14.427032,614,194,-13215
14.442657,580,173,-13142
14.458282,564,216,-13113
14.473907,612,176,-13201
14.489532,528,201,-13119
14.505157,519,224,-13133
14.520782,583,157,-13194
14.536407,537,199,-13131
14.552032,557,219,-13156
14.567657,598,176,-13158
14.583282,580,189,-13138
14.598907,585,201,-13174
14.614532,569,230,-13151
14.630157,576,232,-13163
14.645782,582,196,-13163
14.661407,533,203,-13120
14.677032,548,208,-13163
14.692657,560,196,-13154
14.708282,553,192,-13142
14.723907,591,185,-13194
14.739532,583,203,-13140
14.755157,585,230,-13129
14.770782,614,216,-13185
14.786407,560,233,-13126
14.802032,542,283,-13120
14.817657,573,280,-13183
14.833282,542,289,-13158
14.848907,555,294,-13158
14.864532,582,257,-13161
14.880157,535,282,-13145
14.895782,564,287,-13170
14.911407,587,276,-13131
14.927032,555,332,-13128
14.942657,598,335,-13176
14.958282,608,321,-13138
14.973907,583,348,-13140
14.989532,573,337,-13156
15.005157,533,328,-13135
15.020782,548,330,-13147
15.036407,560,316,-13131
15.052032,553,310,-13142
15.067657,592,299,-13188
15.083282,589,310,-13142
15.098907,582,335,-13147
15.114532,598,317,-13186
15.130157,571,328,-13140
15.145782,566,373,-13160
15.161407,562,366,-13151
15.177032,524,349,-13094
15.192657,551,344,-13169
15.208282,592,328,-13190
15.223907,571,355,-13131
15.239532,580,369,-13153
15.255157,592,362,-13142
15.270782,574,380,-13126
15.286407,582,371,-13142
15.302032,549,360,-13122
15.317657,539,369,-13163
15.333282,578,357,-13192
15.348907,542,357,-13142
15.364532,542,378,-13147
15.380157,553,407,-13138
15.395782,526,426,-13138
15.411407,555,392,-13151
15.427032,544,376,-13120
15.442657,567,394,-13185
15.458282,608,405,-13204
15.473907,541,442,-13129
15.489532,517,442,-13156
15.505157,532,423,-13144
15.520782,499,448,-13088
15.536407,523,446,-13154
15.552032,551,417,-13176
15.567657,532,430,-13145
15.583282,557,457,-13203
15.598907,557,462,-13195
15.614532,507,487,-13113
15.630157,501,492,-13106
15.645782,499,457,-13144
15.661407,496,444,-13165
15.677032,503,457,-13165
15.692657,512,451,-13186
15.708282,532,467,-13204
15.723907,480,498,-13138
15.739532,435,464,-13108
15.755157,480,467,-13144
15.770782,473,532,-13129
15.786407,460,541,-13142
15.802032,510,530,-13192
15.817657,476,510,-13154
15.833282,444,474,-13136
15.848907,455,489,-13145
15.864532,410,528,-13103
15.880157,430,548,-13131
15.895782,424,516,-13154
15.911407,378,480,-13163
15.927032,428,535,-13197
15.942657,401,583,-13145
15.958282,396,564,-13163
15.973907,396,517,-13174
15.989532,317,473,-13079
16.005157,369,510,-13145
16.020782,382,569,-13195
16.036407,355,553,-13138
16.052032,391,501,-13183
16.067657,330,482,-13174
16.083282,310,544,-13124
16.098907,312,598,-13111
16.114532,258,512,-13128
16.130157,296,457,-13208
16.145782,305,519,-13147
16.161407,285,546,-13113
16.177032,326,541,-13228
16.192657,251,496,-13119
16.208282,224,457,-13095
16.223907,294,510,-13260
16.239532,217,485,-13104
16.255157,178,441,-13085
16.270782,233,533,-13290
16.286407,196,553,-13136
16.302032,176,466,-13092
16.317657,201,444,-13251
16.333282,164,432,-13106
16.348907,153,432,-13072
16.364532,166,446,-13229
16.380157,155,439,-13167
16.395782,164,462,-13147
16.411407,155,451,-13211
16.427032,124,364,-13106
16.442657,123,358,-13076
16.458282,144,405,-13188
16.473907,124,348,-13192
16.489532,121,342,-13138
16.505157,133,383,-13156
16.520782,99,328,-13181
16.536407,89,273,-13133
16.552032,71,260,-13131
16.567657,73,294,-13217
16.583282,119,262,-13185
16.598907,105,210,-13136
16.614532,64,264,-13154
16.630157,58,221,-13138
16.645782,80,153,-13181
16.661407,96,228,-13169
16.677032,112,228,-13097
16.692657,107,148,-13203
16.708282,83,144,-13181
16.723907,85,82,-13058
16.739532,91,37,-13203
16.755157,128,101,-13195
16.770782,149,49,-13072
16.786407,110,1,-13204
16.802032,85,80,-13190
16.817657,107,49,-13086
16.833282,126,-25,-13195
16.848907,158,5,-13195
16.864532,198,-29,-13101
16.880157,196,-84,-13154
16.895782,192,-88,-13185
16.911407,199,-142,-13115
16.927032,207,-154,-13106
16.942657,219,-109,-13188
16.958282,249,-158,-13167
16.973907,274,-229,-13101
16.989532,269,-231,-13192
17.005157,294,-224,-13179
17.020782,310,-220,-13101
17.036407,287,-236,-13192
17.052032,339,-261,-13160
17.067657,441,-292,-13090
17.083282,444,-356,-13208
17.098907,442,-342,-13190
17.114532,492,-317,-13104
17.130157,462,-365,-13174
17.145782,473,-368,-13145
17.161407,539,-383,-13069
17.177032,523,-381,-13170
17.192657,564,-340,-13213
17.208282,653,-383,-13129
17.223907,665,-404,-13156
17.239532,707,-397,-13204
17.255157,749,-424,-13140
17.270782,749,-427,-13103
17.286407,773,-409,-13167
17.302032,807,-408,-13190
17.317657,864,-450,-13131
17.333282,894,-463,-13192
17.348907,892,-429,-13238
17.364532,964,-418,-13070
17.380157,973,-422,-13115
17.395782,930,-459,-13235
17.411407,1040,-458,-13079
17.427032,1090,-420,-13138
17.442657,1087,-434,-13247
17.458282,1190,-417,-13103
17.473907,1178,-397,-13158
17.489532,1167,-417,-13179
17.505157,1224,-374,-13097
17.520782,1207,-377,-13178
17.536407,1258,-365,-13111
17.552032,1298,-304,-13136
17.567657,1317,-329,-13211
17.583282,1394,-279,-13078
17.598907,1378,-277,-13161
17.614532,1392,-338,-13172
17.630157,1451,-249,-13065
17.645782,1451,-250,-13203
17.661407,1490,-243,-13178
17.677032,1505,-131,-13108
17.692657,1489,-131,-13165
17.708282,1519,-111,-13129
17.723907,1540,-106,-13154
17.739532,1535,-129,-13145
17.755157,1556,-56,-13142
17.770782,1585,-45,-13190
17.786407,1596,-25,-13110
17.802032,1630,14,-13129
17.817657,1619,7,-13169
17.833282,1601,55,-13129
17.848907,1621,82,-13199
17.864532,1599,103,-13174
17.880157,1587,132,-13122
17.895782,1587,148,-13169
17.911407,1571,192,-13122
17.927032,1605,210,-13120
17.942657,1623,217,-13192
17.958282,1619,248,-13179
17.973907,1612,283,-13161
17.989532,1574,307,-13165
18.005157,1576,308,-13151
18.020782,1542,351,-13140
18.036407,1510,374,-13147
18.052032,1505,353,-13145
18.067657,1492,380,-13172
18.083282,1524,389,-13217
18.098907,1469,367,-13190
18.114532,1406,396,-13154
18.130157,1390,453,-13135
18.145782,1346,466,-13131
18.161407,1335,437,-13163
18.177032,1312,444,-13158
18.192657,1321,442,-13167
18.208282,1344,416,-13197
18.223907,1292,410,-13174
18.239532,1264,417,-13138
18.255157,1228,430,-13108
18.270782,1196,416,-13163
18.286407,1192,399,-13192
18.302032,1128,387,-13113
18.317657,1128,399,-13188
18.333282,1128,392,-13203
18.348907,1055,324,-13072
18.364532,1062,307,-13156
18.380157,1067,301,-13178
18.395782,1044,246,-13090
18.411407,1058,239,-13203
18.427032,1055,246,-13206
18.442657,1030,192,-13104
18.458282,1019,158,-13154
18.473907,985,144,-13140
18.489532,948,119,-13117
18.505157,982,101,-13167
18.520782,1005,46,-13165
18.536407,999,7,-13169
18.552032,1030,-15,-13126
18.567657,1042,-74,-13111
18.583282,1030,-90,-13179
18.598907,1046,-83,-13163
18.614532,1064,-115,-13136
18.630157,1057,-149,-13174
18.645782,1089,-209,-13154
18.661407,1115,-274,-13128
18.677032,1098,-292,-13163
18.692657,1160,-300,-13160
18.708282,1231,-331,-13135
18.723907,1237,-368,-13138
18.739532,1265,-379,-13161
18.755157,1290,-363,-13174
18.770782,1330,-381,-13144
18.786407,1364,-402,-13158
18.802032,1369,-424,-13170
18.817657,1456,-492,-13106
18.833282,1515,-522,-13160
18.848907,1517,-495,-13203
18.864532,1628,-499,-13092
18.880157,1651,-504,-13149
18.895782,1614,-511,-13228
18.911407,1717,-518,-13120
18.927032,1731,-513,-13153
18.942657,1749,-500,-13188
18.958282,1869,-477,-13117
18.973907,1874,-495,-13195
18.989532,1901,-520,-13208
19.005157,1974,-500,-13101
19.020782,1978,-486,-13108
19.036407,2035,-449,-13122
19.052032,2101,-397,-13153
19.067657,2137,-400,-13190
19.083282,2160,-397,-13192
19.098907,2149,-386,-13161
19.114532,2185,-334,-13036
19.130157,2224,-299,-13128
19.145782,2262,-334,-13235
19.161407,2330,-270,-13103
19.177032,2335,-231,-13197
19.192657,2322,-240,-13204
19.208282,2356,-145,-13044
19.223907,2376,-122,-13176
19.239532,2362,-86,-13176
19.255157,2380,24,-13101
19.270782,2408,-17,-13236
19.286407,2349,-11,-13169
19.302032,2340,78,-13081
19.317657,2385,69,-13161
19.333282,2356,124,-13126
19.348907,2364,182,-13120
19.364532,2372,153,-13185
19.380157,2339,192,-13142
19.395782,2321,251,-13160
19.411407,2308,255,-13194
19.427032,2258,287,-13095
19.442657,2217,317,-13106
19.458282,2235,316,-13197
19.473907,2203,324,-13142
19.489532,2167,339,-13135
19.505157,2178,366,-13201
19.520782,2131,382,-13161
19.536407,2076,389,-13142
19.552032,2042,405,-13147
19.567657,1990,378,-13131
19.583282,1976,360,-13156
19.598907,1958,373,-13138
19.614532,1937,373,-13138
19.630157,1922,351,-13179
19.645782,1871,312,-13174
19.661407,1853,303,-13160
19.677032,1830,292,-13126
19.692657,1794,251,-13140
19.708282,1792,248,-13149
19.723907,1767,217,-13122
19.739532,1746,174,-13215
19.755157,1753,153,-13179
19.770782,1769,85,-13074
19.786407,1735,53,-13170
19.802032,1721,37,-13147
19.817657,1783,-22,-13117
19.833282,1780,-27,-13217
19.848907,1783,-81,-13144
19.864532,1789,-172,-13135
19.880157,1771,-172,-13161
19.895782,1840,-209,-13092
19.911407,1872,-259,-13201
19.927032,1892,-256,-13190
19.942657,1964,-315,-13090
19.958282,1981,-388,-13197
19.973907,2024,-393,-13154
19.989532,2096,-415,-13060
20.005157,2115,-429,-13190
20.020782,2153,-440,-13219
20.036407,2219,-508,-13097
20.052032,2255,-549,-13117
20.067657,2299,-540,-13201
20.083282,2399,-538,-13120
20.098907,2465,-536,-13060
20.114532,2485,-558,-13203
20.130157,2555,-568,-13222
20.145782,2653,-511,-13081
20.161407,2676,-506,-13147
20.177154,2703,-536,-13213
20.192779,2812,-502,-13078
20.208404,2846,-522,-13136
20.224029,2837,-572,-13254
20.239654,2915,-499,-13090
20.255279,2974,-420,-13076
20.270904,3003,-420,-13226
20.286529,3085,-352,-13124
20.302154,3144,-308,-13086
20.317779,3142,-336,-13211
20.333404,3163,-315,-13174
20.349029,3194,-277,-13104
20.364654,3213,-190,-13138
20.380279,3251,-106,-13172
20.395904,3269,-83,-13128
20.411529,3244,-75,-13099
20.427154,3260,-90,-13165
20.442779,3288,-25,-13167
20.458404,3276,73,-13149
20.474029,3287,99,-13199
20.489654,3251,142,-13142
20.505279,3203,189,-13088
20.520904,3187,180,-13142
20.536529,3135,191,-13119
20.552154,3146,285,-13135
20.567779,3181,344,-13213
20.583404,3138,296,-13183
20.599029,3096,280,-13167
20.614654,3019,308,-13129
20.630279,2937,314,-13053
20.645904,2938,348,-13117
20.661529,2913,337,-13158
20.677154,2881,299,-13153
20.692779,2881,289,-13228
20.708404,2817,267,-13176
20.724029,2756,273,-13085
20.739654,2756,274,-13110
20.755279,2746,212,-13124
20.770904,2715,149,-13161
20.786529,2706,121,-13194
20.802154,2674,92,-13140
20.817779,2635,89,-13120
20.833404,2649,51,-13115
20.849029,2655,-25,-13144
20.864654,2647,-86,-13165
20.880279,2683,-167,-13108
20.895904,2687,-208,-13172
20.911529,2676,-200,-13178
20.927154,2722,-249,-13065
20.942779,2756,-299,-13183
20.958404,2815,-331,-13201
20.974029,2908,-409,-13074
20.989654,2913,-456,-13199
21.005279,2924,-472,-13194
21.020904,2988,-518,-13047
21.036529,3015,-554,-13158
21.052154,3097,-574,-13178
21.067779,3213,-595,-13083
21.083404,3249,-618,-13186
21.099029,3310,-602,-13228
21.114654,3371,-574,-13122
21.130279,3385,-609,-13115
21.145904,3438,-622,-13172
21.161529,3515,-604,-13131
21.177032,3592,-618,-13060
21.192657,3669,-608,-13165
21.208282,3729,-584,-13233
21.223907,3792,-529,-13086
21.239532,3831,-456,-13115
21.255157,3869,-461,-13195
21.270782,3926,-422,-13060
21.286407,3969,-386,-13140
21.302032,3997,-422,-13261
21.317657,4024,-350,-13136
21.333282,4065,-286,-13111
21.348907,4070,-243,-13113
21.364532,4079,-143,-13108
21.380157,4117,-115,-13178
21.395782,4085,-81,-13158
21.411407,4062,-25,-13178
21.427032,4053,5,-13194
21.442657,4006,73,-13090
21.458282,4010,144,-13115
21.473907,4017,178,-13176
21.489532,3976,176,-13128
21.505157,3974,174,-13176
21.520782,3958,208,-13224
21.536407,3878,239,-13156
21.552032,3824,255,-13131
21.567657,3776,257,-13131
21.583282,3720,221,-13119
21.598907,3681,224,-13115
21.614532,3663,253,-13149
21.630157,3665,253,-13195
21.645782,3642,246,-13178
21.661407,3588,201,-13169
21.677032,3517,151,-13131
21.692657,3446,99,-13049
21.708282,3442,28,-13103
21.723907,3462,21,-13183
21.739532,3474,1,-13156
21.755157,3476,-59,-13174
21.770782,3442,-100,-13165
21.786407,3428,-170,-13047
21.802032,3437,-240,-13081
21.817657,3478,-281,-13210
21.833282,3569,-336,-13183
21.848907,3599,-379,-13153
21.864532,3597,-442,-13156
21.880157,3640,-525,-13090
21.895782,3687,-552,-13104
21.911407,3728,-543,-13178
21.927032,3826,-561,-13149
21.942657,3935,-611,-13106
21.958282,3978,-665,-13165
21.973907,4004,-693,-13213
21.989532,4070,-659,-13103
22.005157,4162,-625,-13047
22.020782,4201,-670,-13195
22.036407,4292,-706,-13151
22.052032,4403,-658,-13049
22.067657,4413,-649,-13228
22.083282,4476,-647,-13176
22.098907,4556,-536,-13013
22.114532,4601,-513,-13169
22.130157,4658,-524,-13161
22.145782,4683,-467,-13072
22.161407,4722,-470,-13174
22.177032,4776,-409,-13172
22.192657,4788,-318,-13117
22.208282,4794,-283,-13128
22.223907,4817,-222,-13142
22.239532,4819,-161,-13120
22.255157,4824,-106,-13111
22.270782,4849,-68,-13208
22.286407,4817,-13,-13176
22.302032,4756,64,-13086
22.317657,4776,71,-13169
22.333282,4724,62,-13138
22.348907,4644,128,-13092
22.364532,4665,173,-13188
22.380157,4617,171,-13165
22.395782,4576,212,-13160
22.411407,4549,226,-13190
22.427032,4453,201,-13097
22.442657,4401,216,-13113
22.458282,4338,192,-13158
22.473907,4276,148,-13128
22.489532,4281,153,-13176
22.505157,4254,108,-13190
22.520782,4206,30,-13131
22.536407,4179,-8,-13111
22.552032,4138,-42,-13122
22.567657,4133,-92,-13126
22.583282,4158,-170,-13133
22.598907,4145,-200,-13178
22.614532,4138,-240,-13163
22.630157,4140,-334,-13095
22.645782,4156,-367,-13120
22.661407,4228,-420,-13158
22.677032,4304,-500,-13136
22.692657,4385,-534,-13158
22.708282,4438,-583,-13201
22.723907,4469,-631,-13136
22.739532,4544,-699,-13110
22.755157,4569,-759,-13204
22.770782,4626,-749,-13147
22.786407,4720,-733,-13097
22.802032,4745,-756,-13192
22.817657,4861,-752,-13145
22.833282,4972,-715,-13122
22.848907,4999,-683,-13183
22.864532,5099,-636,-13122
22.880157,5167,-631,-13135
22.895782,5201,-649,-13170
22.911407,5265,-599,-13108
22.927032,5311,-549,-13074
22.942657,5381,-499,-13103
22.958282,5444,-479,-13213
22.973907,5440,-481,-13194
22.989532,5429,-384,-13086
23.005157,5427,-322,-13126
23.020782,5401,-242,-13088
23.036407,5411,-99,-13070
23.052032,5452,-77,-13190
23.067657,5460,-108,-13176
23.083282,5440,-68,-13142
23.098907,5377,14,-13181
23.114532,5338,87,-13154
23.130157,5329,132,-13111
23.145782,5265,142,-13122
23.161407,5210,119,-13158
23.177032,5172,117,-13170
23.192657,5106,139,-13145
23.208282,5051,164,-13145
23.223907,5006,158,-13154
23.239532,4945,110,-13115
23.255157,4879,67,-13136
23.270782,4835,57,-13172
23.286407,4783,49,-13086
23.302032,4745,19,-13106
23.317657,4770,-20,-13208
23.333282,4790,-115,-13149
23.348907,4770,-222,-13108
23.364532,4765,-286,-13115
23.380157,4753,-370,-13092
23.395782,4760,-400,-13117
23.411407,4820,-413,-13156
23.427032,4835,-483,-13163
23.442657,4870,-549,-13124
23.458282,4976,-625,-13113
23.473907,4988,-675,-13190
23.489532,5019,-674,-13156
23.505157,5144,-686,-13090
23.520782,5192,-713,-13183
23.536407,5267,-763,-13149
23.552032,5385,-781,-13104
23.567657,5422,-772,-13244
23.583282,5526,-777,-13144
23.598907,5642,-734,-13036
23.614532,5654,-727,-13192
23.630157,5702,-756,-13165
23.645782,5768,-725,-13094
23.661407,5792,-688,-13128
23.677032,5840,-581,-13074
23.692657,5920,-493,-13142
23.708282,5983,-483,-13197
23.723907,5995,-418,-13147
23.739532,6008,-399,-13126
23.755157,5992,-318,-13065
23.770782,6010,-192,-13140
23.786407,6045,-161,-13181
23.802032,5995,-106,-13104
23.817657,6001,-88,-13181
23.833282,5951,-106,-13147
23.848907,5843,-20,-13072
23.864532,5881,73,-13201
23.880157,5840,94,-13169
23.895782,5747,96,-13111
23.911407,5742,94,-13229
23.927032,5604,74,-13145
23.942657,5479,94,-13054
23.958282,5476,124,-13151
23.973907,5431,89,-13156
23.989532,5402,42,-13156
24.005157,5385,-4,-13190
24.020782,5336,-65,-13156
24.036407,5294,-92,-13106
24.052032,5263,-125,-13061
24.067657,5263,-195,-13145
24.083282,5288,-267,-13213
24.098907,5302,-367,-13104
24.114532,5286,-461,-13120
24.130157,5272,-504,-13186
24.145782,5335,-554,-13110
24.161407,5402,-613,-13117
24.177032,5431,-633,-13165
24.192657,5519,-683,-13119
24.208282,5570,-758,-13142
24.223907,5611,-768,-13161
24.239532,5726,-763,-13124
24.255157,5806,-783,-13156
24.270782,5899,-795,-13128
24.286407,5965,-824,-13133
24.302032,5999,-847,-13178
24.317657,6120,-806,-13086
24.333282,6193,-779,-13120
24.348907,6217,-750,-13178
24.364532,6286,-677,-13113
24.380157,6329,-697,-13151
24.395782,6352,-656,-13145
24.411407,6415,-534,-13101
24.427032,6459,-500,-13144
24.442657,6477,-422,-13140
24.458282,6518,-336,-13129
24.473907,6501,-292,-13115
24.489532,6456,-222,-13138
24.505157,6467,-186,-13170
24.520782,6413,-118,-13117
24.536407,6392,-65,-13147
24.552032,6395,-63,-13172
24.567657,6304,-11,-13108
24.583282,6288,24,-13172
24.598907,6242,46,-13210
24.614532,6108,83,-13111
24.630157,6063,105,-13151
24.645782,6015,114,-13183
24.661407,5922,66,-13081
24.677032,5890,3,-13138
24.692657,5863,-8,-13199
24.708282,5806,-45,-13090
24.723907,5770,-102,-13131
24.739532,5747,-134,-13206
24.755157,5726,-204,-13106
24.770782,5708,-283,-13086
24.786407,5697,-361,-13147
24.802032,5715,-454,-13156
24.817657,5758,-495,-13129
24.833282,5804,-540,-13119
24.848907,5817,-616,-13183
24.864532,5858,-674,-13129
24.880157,5956,-716,-13033
24.895782,5985,-738,-13208
24.911407,6047,-766,-13220
24.927032,6179,-802,-13040
24.942657,6227,-852,-13183
24.958282,6306,-904,-13220
24.973907,6415,-875,-13065
24.989532,6436,-843,-13169
25.005157,6542,-811,-13161
25.020782,6672,-750,-13054
25.036407,6697,-775,-13165
25.052032,6722,-777,-13161
25.067657,6770,-700,-13058
25.083282,6815,-647,-13083
25.098907,6856,-570,-13183
25.114532,6908,-513,-13203
25.130157,6906,-445,-13074
25.145782,6897,-349,-13117
25.161407,6929,-297,-13199
25.177032,6863,-204,-13097
25.192657,6859,-143,-13153
25.208282,6858,-134,-13181
25.223907,6738,-75,-13065
25.239532,6733,-54,-13119
25.255157,6686,-25,-13153
25.270782,6615,62,-13131
25.286407,6602,80,-13186
25.302032,6486,35,-13174
25.317657,6415,39,-13153
25.333282,6336,16,-13106
25.348907,6233,-36,-13067
25.364532,6197,-33,-13124
25.380157,6154,-61,-13144
25.395782,6156,-104,-13151
25.411407,6165,-154,-13138
25.427032,6106,-234,-13106
25.442657,6081,-293,-13104
25.458282,6117,-390,-13104
25.473907,6118,-467,-13160
25.489532,6145,-513,-13176
25.505157,6208,-608,-13126
25.520782,6236,-688,-13131
25.536407,6286,-740,-13129
25.552032,6349,-775,-13111
25.567657,6411,-800,-13119
25.583282,6483,-845,-13142
25.598907,6565,-881,-13140
25.614532,6638,-900,-13140
25.630157,6663,-899,-13163
25.645782,6754,-849,-13097
25.661407,6904,-795,-13069
25.677032,6975,-825,-13153
25.692657,7027,-856,-13165
25.708282,7084,-825,-13161
25.723907,7117,-761,-13103
25.739532,7167,-616,-13056
25.755157,7227,-547,-13163
25.770782,7250,-540,-13131
25.786407,7272,-486,-13081
25.802032,7295,-493,-13185
25.817657,7265,-418,-13156
25.833282,7267,-277,-13151
25.848907,7252,-211,-13169
25.864532,7147,-145,-13079
25.880157,7131,-111,-13126
25.895782,7084,-88,-13151
25.911407,6974,-15,-13128
25.927032,6993,51,-13201
25.942657,6938,57,-13149
25.958282,6838,24,-13117
25.973907,6793,-4,-13161
25.989532,6683,-34,-13070
26.005157,6613,-38,-13063
26.020782,6593,-24,-13158
26.036407,6561,-92,-13172
26.052032,6518,-172,-13178
26.067657,6459,-245,-13111
26.083282,6422,-374,-13042
26.098907,6404,-438,-13085
26.114532,6433,-447,-13133
26.130157,6476,-481,-13158
26.145782,6495,-525,-13161
26.161407,6524,-625,-13128
26.177032,6543,-738,-13088
26.192657,6604,-808,-13106
26.208282,6727,-843,-13165
26.223907,6829,-831,-13144
26.239532,6920,-845,-13103
26.255157,6993,-911,-13174
26.270782,7034,-936,-13192
26.286407,7108,-906,-13069
26.302032,7156,-872,-13069
26.317657,7231,-861,-13120
26.333282,7343,-866,-13120
26.348907,7368,-875,-13201
26.364532,7413,-800,-13158
26.380157,7475,-647,-13054
26.395782,7520,-581,-13101
26.411407,7568,-552,-13117
26.427032,7584,-492,-13120
26.442657,7611,-472,-13176
26.458282,7609,-425,-13151
26.473907,7568,-308,-13133
26.489532,7533,-234,-13149
26.505157,7477,-193,-13081
26.520782,7443,-156,-13099
26.536407,7408,-129,-13170
26.552032,7322,-70,-13145
26.567657,7281,3,-13203
26.583282,7234,12,-13217
26.598907,7106,-25,-13106
26.614532,7008,-31,-13095
26.630157,6952,-45,-13092
26.645782,6913,-86,-13104
26.661407,6879,-75,-13161
26.677032,6847,-99,-13138
26.692657,6831,-175,-13176
26.708282,6788,-252,-13160
26.723907,6733,-370,-13029
26.739532,6701,-452,-13097
26.755157,6722,-499,-13172
26.770782,6790,-570,-13128
26.786407,6818,-629,-13186
26.802032,6840,-713,-13167
26.817657,6888,-811,-13036
26.833282,6917,-859,-13094
26.848907,6967,-841,-13197
26.864532,7099,-833,-13133
26.880157,7229,-865,-13117
26.895782,7315,-906,-13183
26.911407,7349,-941,-13170
26.927032,7356,-950,-13095
26.942657,7472,-906,-13040
26.958282,7591,-863,-13126
26.973907,7649,-870,-13195
26.989532,7736,-806,-13128
27.005157,7774,-720,-13138
27.020782,7777,-691,-13120
27.036407,7802,-615,-13054
27.052032,7829,-574,-13122
27.067657,7843,-500,-13138
27.083282,7883,-370,-13147
27.098907,7884,-342,-13179
27.114532,7800,-286,-13104
27.130157,7770,-217,-13110
27.145782,7718,-174,-13129
27.161407,7640,-79,-13099
27.177032,7633,-34,-13167
27.192657,7581,-36,-13204
27.208282,7516,-40,-13195
27.223907,7427,-52,-13174
27.239532,7297,-50,-13085
27.255157,7224,-45,-13069
27.270782,7172,-70,-13111
27.286407,7136,-142,-13144
27.302032,7102,-192,-13188
27.317657,7042,-234,-13165
27.333282,7000,-331,-13126
27.348907,6986,-399,-13070
27.364532,6986,-447,-13090
27.380157,7002,-502,-13206
27.395782,7068,-584,-13156
27.411407,7097,-677,-13117
27.427032,7075,-711,-13181
27.442657,7143,-790,-13115
27.458282,7225,-888,-13088
27.473907,7284,-916,-13167
27.489532,7404,-929,-13128
27.505157,7511,-931,-13120
27.520782,7547,-947,-13210
27.536407,7613,-954,-13145
27.552032,7695,-916,-13069
27.567657,7754,-920,-13120
27.583282,7858,-920,-13124
27.598907,7934,-872,-13106
27.614532,7990,-820,-13117
27.630157,8049,-745,-13128
27.645782,8063,-663,-13160
27.661407,8054,-604,-13128
27.677032,8043,-529,-13074
27.692657,8088,-443,-13103
27.708282,8116,-384,-13124
27.723907,8100,-333,-13156
27.739532,8093,-272,-13194
27.755157,8015,-220,-13147
27.770782,7947,-158,-13138
27.786407,7890,-95,-13161
27.802032,7795,-49,-13124
27.817657,7745,-27,-13140
27.833282,7672,-56,-13185
27.848907,7583,-84,-13161
27.864532,7504,-81,-13117
27.880157,7415,-108,-13106
27.895782,7367,-125,-13140
27.911407,7329,-152,-13115
27.927032,7268,-218,-13099
27.942657,7242,-281,-13169
27.958282,7238,-368,-13115
27.973907,7215,-461,-13058
27.989532,7215,-540,-13142
28.005157,7254,-593,-13140
28.020782,7281,-647,-13122
28.036407,7315,-740,-13158
28.052032,7384,-813,-13126
28.067657,7447,-883,-13124
28.083282,7515,-931,-13160
28.098907,7604,-940,-13161
28.114532,7684,-963,-13129
28.130157,7761,-984,-13094
28.145782,7829,-995,-13158
28.161407,7893,-1002,-13194
28.177032,7986,-949,-13085
28.192657,8068,-902,-13081
28.208282,8118,-911,-13165
28.223907,8170,-850,-13138
28.239532,8209,-772,-13122
28.255157,8263,-716,-13128
28.270782,8307,-599,-13124
28.286407,8322,-506,-13120
28.302032,8324,-438,-13070
28.317657,8318,-368,-13128
28.333282,8325,-370,-13217
28.348907,8256,-336,-13151
28.364532,8174,-249,-13145
28.380157,8154,-163,-13192
28.395782,8079,-81,-13122
28.411407,7993,-67,-13135
28.427032,7918,-100,-13179
28.442657,7822,-106,-13103
28.458282,7766,-88,-13124
28.473907,7713,-58,-13183
28.489532,7633,-70,-13129
28.505157,7581,-136,-13136
28.520782,7531,-206,-13147
28.536407,7463,-281,-13095
28.552032,7440,-331,-13094
28.567657,7450,-395,-13115
28.583282,7450,-504,-13158
28.598907,7466,-602,-13153
28.614532,7499,-691,-13088
28.630157,7484,-750,-13117
28.645782,7513,-786,-13133
28.661407,7602,-852,-13126
28.677032,7634,-881,-13160
28.692657,7718,-906,-13101
28.708282,7827,-977,-13115
28.723907,7870,-990,-13194
28.739532,7988,-945,-13088
28.755157,8075,-924,-13122
28.770782,8115,-941,-13197
28.786407,8263,-904,-13011
28.802032,8340,-904,-13111
28.817657,8347,-965,-13222
28.833282,8397,-840,-13015
28.848907,8432,-731,-13106
28.864532,8456,-674,-13195
28.880157,8475,-525,-13076
28.895782,8486,-509,-13085
28.911407,8456,-493,-13113
28.927032,8468,-411,-13167
28.942657,8474,-363,-13167
28.958282,8431,-233,-13154
28.973907,8411,-131,-13186
28.989532,8284,-125,-13072
29.005157,8186,-100,-13092
29.020782,8150,-81,-13179
29.036407,8041,-86,-13088
29.052032,8007,-72,-13178
29.067657,7963,-86,-13247
29.083282,7847,-159,-13106
29.098907,7763,-190,-13095
29.114532,7681,-220,-13101
29.130157,7629,-277,-13054
29.145782,7606,-311,-13117
29.161407,7584,-377,-13186
29.177032,7583,-450,-13147
29.192657,7604,-570,-13065
29.208282,7638,-695,-13074
29.223907,7672,-727,-13138
29.239532,7734,-754,-13131
29.255157,7822,-815,-13135
29.270782,7859,-863,-13179
29.286407,7883,-931,-13103
29.302032,7947,-1000,-13056
29.317657,8031,-1009,-13161
29.333282,8166,-991,-13136
29.348907,8295,-963,-13097
29.364532,8361,-959,-13192
29.380157,8431,-949,-13119
29.395782,8447,-909,-13081
29.411407,8452,-891,-13110
29.427032,8522,-800,-13019
29.442657,8607,-729,-13115
29.458282,8697,-688,-13183
29.473907,8738,-565,-13119
29.489532,8720,-550,-13151
29.505157,8661,-543,-13074
29.520782,8636,-420,-13090
29.536407,8640,-338,-13190
29.552032,8565,-243,-13094
29.567657,8538,-181,-13142
29.583282,8475,-213,-13217
29.598907,8322,-192,-13101
29.614532,8288,-117,-13126
29.630157,8229,-68,-13172
29.645782,8129,-54,-13115
29.661407,8107,-72,-13160
29.677032,8016,-127,-13167
29.692657,7902,-206,-13103
29.708282,7866,-243,-13101
29.723907,7834,-286,-13078
29.739532,7793,-354,-13119
29.755157,7779,-413,-13174
29.770782,7802,-515,-13085
29.786407,7800,-627,-13111
29.802032,7768,-684,-13161
29.817657,7845,-736,-13069
29.833282,7913,-800,-13158
29.848907,7941,-845,-13194
29.864532,8054,-906,-13049
29.880157,8084,-981,-13119
29.895782,8143,-1000,-13188
29.911407,8295,-997,-13092
29.927032,8370,-1002,-13086
29.942657,8445,-991,-13149
29.958282,8522,-1006,-13153
29.973907,8566,-1004,-13099
29.989532,8613,-941,-13103
30.005157,8679,-850,-13110
30.020782,8772,-734,-13049
30.036407,8845,-666,-13111
30.052032,8882,-650,-13188
30.067657,8893,-634,-13138
30.083282,8895,-600,-13126
30.098907,8866,-474,-13140
30.114532,8836,-306,-13133
30.130157,8811,-225,-13120
30.145782,8754,-206,-13103
30.161407,8709,-211,-13133
30.177032,8665,-177,-13142
30.192657,8607,-88,-13138
30.208282,8575,-65,-13197
30.223907,8495,-75,-13186
30.239532,8354,-97,-13120
30.255157,8274,-152,-13119
30.270782,8222,-186,-13088
30.286407,8152,-188,-13065
30.302032,8141,-204,-13138
30.317657,8150,-275,-13167
30.333282,8131,-425,-13138
30.348907,8099,-547,-13097
30.364532,8093,-613,-13040
30.380157,8099,-695,-13110
30.395782,8145,-715,-13199
30.411407,8256,-738,-13140
30.427032,8331,-824,-13106
30.442657,8370,-931,-13122
30.458282,8425,-1022,-13117
30.473907,8506,-1008,-13151
30.489532,8648,-965,-13113
30.505157,8807,-954,-13092
30.520782,8852,-1004,-13224
30.536407,8911,-1049,-13142
30.552032,9004,-966,-13006
30.567657,9027,-929,-13129
30.583282,9148,-872,-13069
30.598907,9279,-722,-13044
30.614532,9311,-725,-13235
30.630157,9320,-741,-13147
30.645782,9322,-661,-13069
30.661407,9300,-599,-13128
30.677032,9259,-431,-13079
30.692657,9313,-299,-13131
30.708282,9307,-306,-13165
30.723907,9227,-279,-13136
30.739532,9193,-242,-13174
30.755157,9068,-188,-13120
30.770782,9015,-88,-13122
30.786407,9029,-50,-13174
30.802032,8916,-124,-13128
30.817657,8822,-193,-13145
30.833282,8734,-236,-13129
30.848907,8625,-261,-13053
30.864532,8593,-220,-13103
30.880157,8600,-252,-13156
30.895782,8600,-381,-13142
30.911407,8584,-511,-13117
30.927032,8577,-631,-13060
30.942657,8579,-690,-13079
30.958282,8613,-709,-13156
30.973907,8702,-745,-13160
30.989532,8788,-840,-13142
31.005157,8865,-966,-13120
31.020782,8952,-1034,-13110
31.036407,9006,-1031,-13186
31.052032,9082,-993,-13138
31.067657,9216,-979,-13035
31.083282,9279,-1059,-13167
31.098907,9370,-1102,-13178
31.114532,9493,-1015,-13090
31.130157,9516,-975,-13181
31.145782,9613,-883,-13067
31.161407,9713,-750,-13020
31.177032,9732,-791,-13217
31.192657,9789,-759,-13169
31.208282,9832,-650,-13128
31.223907,9797,-602,-13161
31.239532,9748,-458,-13094
31.255157,9757,-342,-13103
31.270782,9713,-342,-13113
31.286407,9666,-317,-13126
31.302032,9616,-261,-13169
31.317657,9536,-195,-13179
31.333282,9514,-120,-13188
31.348907,9391,-125,-13122
31.364532,9272,-183,-13106
31.380157,9232,-199,-13119
31.395782,9136,-247,-13033
31.411407,9077,-277,-13083
31.427032,9066,-258,-13178
31.442657,9056,-343,-13142
31.458282,9036,-458,-13117
31.473907,9002,-554,-13103
31.489532,9015,-720,-13081
31.505157,9059,-820,-13135
31.520782,9109,-827,-13188
31.536407,9195,-868,-13163
31.552032,9254,-934,-13099
31.567657,9318,-1015,-13033
31.583282,9381,-1077,-13099
31.598907,9427,-1065,-13178
31.614532,9625,-1036,-13060
31.630157,9788,-1050,-13119
31.645782,9813,-1074,-13285
31.661407,9916,-1041,-13079
31.677032,9964,-995,-12985
31.692657,9982,-993,-13110
31.708282,10107,-890,-13028
31.723907,10198,-779,-13131
31.739532,10229,-758,-13285
31.755157,10209,-663,-13122
31.770782,10198,-599,-13035
31.786407,10166,-531,-13074
31.802032,10129,-402,-13119
31.817657,10136,-349,-13158
31.833282,10102,-290,-13192
31.848907,10066,-220,-13240
31.864532,9957,-217,-13149
31.880157,9818,-222,-13090
31.895782,9752,-174,-13128
31.911407,9657,-177,-13036
31.927032,9611,-208,-13097
31.942657,9598,-208,-13215
31.958282,9518,-329,-13149
31.973907,9443,-406,-13153
31.989532,9395,-417,-13081
32.005157,9381,-525,-12978
32.020782,9386,-616,-13108
32.036407,9441,-716,-13167
32.052032,9529,-854,-13120
32.067657,9548,-902,-13160
32.083282,9577,-949,-13111
32.098907,9650,-1024,-13058
32.114532,9718,-1045,-13120
32.130157,9847,-1075,-13095
32.145782,9979,-1115,-13129
32.161407,10082,-1125,-13204
32.177032,10166,-1100,-13126
32.192657,10211,-1059,-13110
32.208282,10279,-1043,-13070
32.223907,10359,-986,-13010
32.239532,10436,-936,-13129
32.255157,10516,-911,-13183
32.270782,10571,-820,-13151
32.286407,10570,-722,-13108
32.302032,10546,-615,-13026
32.317657,10575,-502,-13063
32.333282,10580,-463,-13144
32.348907,10530,-433,-13186
32.364532,10475,-370,-13206
32.380157,10398,-283,-13136
32.395782,10336,-199,-13117
32.411407,10252,-197,-13131
32.427032,10118,-245,-13060
32.442657,10030,-272,-13106
32.458282,9984,-256,-13190
32.473907,9909,-247,-13095
32.489532,9836,-288,-13117
32.505157,9793,-340,-13174
32.520782,9775,-459,-13029
32.536407,9761,-631,-13049
32.552032,9748,-684,-13147
32.567657,9800,-724,-13079
32.583282,9848,-813,-13158
32.598907,9868,-874,-13176
32.614532,9968,-972,-13017
32.630157,10032,-1063,-13097
32.645782,10084,-1113,-13174
32.661407,10232,-1129,-13094
32.677032,10334,-1104,-13124
32.692657,10416,-1100,-13151
32.708282,10507,-1127,-13133
32.723907,10573,-1116,-13088
32.739532,10643,-1031,-13069
32.755157,10702,-1018,-13111
32.770782,10795,-975,-13053
32.786407,10871,-841,-13092
32.802032,10900,-788,-13179
32.817657,10921,-702,-13086
32.833282,10952,-638,-13110
32.848907,10927,-618,-13144
32.864532,10834,-495,-13083
32.880157,10814,-402,-13160
32.895782,10766,-368,-13169
32.911407,10680,-295,-13106
32.927032,10646,-234,-13158
32.942657,10539,-263,-13147
32.958282,10430,-286,-13108
32.973907,10345,-258,-13111
32.989532,10247,-268,-13097
33.005157,10179,-306,-13120
33.020782,10132,-368,-13106
33.036407,10113,-465,-13086
33.052032,10072,-563,-13110
33.067657,10055,-620,-13085
33.083282,10107,-693,-13090
33.098907,10136,-824,-13136
33.114532,10177,-924,-13117
33.130157,10257,-995,-13120
33.145782,10311,-1063,-13169
33.161407,10388,-1113,-13103
33.177032,10484,-1140,-13081
33.192657,10579,-1140,-13145
33.208282,10698,-1165,-13094
33.223907,10782,-1158,-13135
33.239532,10866,-1109,-13138
33.255157,10955,-1061,-13011
33.270782,11007,-1068,-13115
33.286407,11059,-1047,-13115
33.302032,11112,-891,-12999
33.317657,11200,-824,-13161
33.333282,11255,-765,-13190
33.348907,11223,-625,-13090
33.364532,11200,-597,-13115
33.380157,11143,-547,-13110
33.395782,11104,-442,-13126
33.411407,11075,-367,-13122
33.427032,11004,-288,-13140
33.442657,10971,-247,-13220
33.458282,10859,-279,-13144
33.473907,10716,-295,-13106
33.489532,10643,-258,-13129
33.505157,10545,-304,-13033
33.520782,10495,-354,-13076
33.536407,10464,-393,-13163
33.552032,10400,-508,-13122
33.567657,10379,-575,-13113
33.583282,10357,-647,-13097
33.598907,10347,-774,-13069
33.614532,10405,-877,-13092
33.630157,10473,-940,-13133
33.645782,10539,-1000,-13154
33.661407,10638,-1081,-13138
33.677032,10704,-1140,-13099
33.692657,10750,-1165,-13124
33.708282,10852,-1177,-13149
33.723907,11000,-1170,-13074
33.739532,11096,-1161,-13115
33.755157,11159,-1172,-13163
33.770782,11255,-1122,-13085
33.786407,11304,-1081,-13078
33.802032,11343,-1016,-13033
33.817657,11457,-888,-13063
33.833282,11530,-872,-13208
33.848907,11487,-795,-13149
33.864532,11487,-665,-13108
33.880157,11471,-622,-13120
33.895782,11366,-509,-13047
33.911407,11355,-425,-13099
33.927032,11334,-390,-13149
33.942657,11268,-329,-13161
33.958282,11243,-299,-13220
33.973907,11098,-295,-13163
33.989532,10950,-288,-13117
34.005157,10879,-299,-13094
34.020782,10766,-363,-13035
34.036407,10707,-411,-13101
34.052032,10682,-454,-13147
34.067657,10655,-522,-13138
34.083282,10645,-615,-13156
34.098907,10618,-724,-13074
34.114532,10625,-834,-13013
34.130157,10686,-934,-13097
34.145782,10768,-993,-13172
34.161407,10875,-1047,-13170
34.177032,10964,-1104,-13147
34.192657,11027,-1170,-13117
34.208282,11104,-1236,-13106
34.223907,11164,-1241,-13097
34.239532,11243,-1222,-13095
34.255157,11389,-1199,-13117
34.270782,11502,-1134,-13092
34.286407,11559,-1061,-13094
34.302032,11609,-1041,-13117
34.317657,11654,-1011,-13067
34.333282,11687,-920,-13079
34.348907,11709,-825,-13142
34.364532,11727,-704,-13117
34.380157,11728,-572,-13120
34.395782,11709,-518,-13140
34.411407,11614,-513,-13088
34.427032,11536,-450,-13095
34.442657,11505,-365,-13135
34.458282,11446,-309,-13165
34.473907,11416,-258,-13217
34.489532,11302,-288,-13160
34.505157,11134,-381,-13094
34.520782,11032,-395,-13088
34.536407,10941,-406,-13006
34.552032,10893,-443,-13067
34.567657,10927,-467,-13211
34.583282,10959,-602,-13144
34.598907,10891,-770,-13088
34.614532,10845,-888,-13072
34.630157,10900,-977,-13044
34.645782,10946,-979,-13149
34.661407,11052,-1000,-13172
34.677032,11202,-1090,-13126
34.692657,11259,-1204,-13158
34.708282,11293,-1297,-13120
34.723907,11352,-1279,-13083
34.739532,11450,-1204,-13060
34.755157,11611,-1134,-13049
34.770782,11737,-1113,-13167
34.786407,11809,-1120,-13179
34.802032,11852,-1066,-13069
34.817657,11866,-1020,-13070
34.833282,11891,-965,-13056
34.848907,11934,-822,-13072
34.864532,12007,-709,-13199
34.880157,12005,-636,-13172
34.895782,11961,-575,-13122
34.911407,11900,-563,-13147
34.927032,11725,-483,-13078
34.942657,11670,-368,-13085
34.958282,11686,-302,-13149
34.973907,11595,-275,-13181
34.989532,11529,-309,-13220
35.005157,11409,-379,-13158
35.020782,11254,-409,-13099
35.036407,11159,-404,-13019
35.052032,11098,-483,-12976
35.067657,11086,-570,-13190
35.083282,11116,-652,-13217
35.098907,11143,-788,-13061
35.114532,11111,-863,-13111
35.130157,11102,-940,-13056
35.145782,11159,-1052,-13031
35.161407,11234,-1079,-13185
35.177032,11377,-1111,-13147
35.192657,11518,-1218,-13106
35.208282,11561,-1286,-13178
35.223907,11621,-1274,-13106
35.239532,11730,-1231,-13053
35.255157,11836,-1179,-13069
35.270782,11959,-1115,-13060
35.286407,12034,-1095,-13149
35.302032,12046,-1095,-13149
35.317657,12103,-1024,-13076
35.333282,12155,-966,-13106
35.348907,12111,-849,-13033
35.364532,12123,-674,-13065
35.380157,12180,-616,-13206
35.395782,12111,-559,-13131
35.411407,12068,-506,-13151
35.427032,11970,-477,-13186
35.442657,11800,-384,-13056
35.458282,11800,-290,-13085
35.473907,11761,-288,-13136
35.489532,11645,-367,-13142
35.505157,11559,-395,-13163
35.520782,11409,-409,-13083
35.536407,11311,-454,-13058
35.552032,11302,-477,-13074
35.567657,11309,-574,-13085
35.583282,11311,-741,-13167
35.598907,11327,-881,-13111
35.614532,11334,-986,-13051
35.630157,11309,-1043,-13160
35.645782,11364,-1058,-13149
35.661407,11493,-1088,-13053
35.677032,11584,-1158,-13115
35.692657,11677,-1259,-13179
35.708282,11818,-1302,-13115
35.723907,11893,-1250,-13106
35.739532,11961,-1204,-13122
35.755157,12103,-1159,-13033
35.770782,12180,-1138,-13053
35.786407,12216,-1158,-13151
35.802032,12268,-1097,-13104
35.817657,12284,-988,-13040
35.833282,12293,-854,-13065
35.848907,12348,-709,-13115
35.864532,12382,-666,-13103
35.880157,12341,-641,-13119
35.895782,12311,-588,-13217
35.911407,12180,-515,-13144
35.927032,12053,-393,-13092
35.942657,12061,-304,-13183
35.958282,11939,-331,-13131
35.973907,11816,-402,-13124
35.989532,11739,-427,-13147
36.005157,11582,-443,-13067
36.020782,11529,-417,-13076
36.036407,11529,-443,-13092
36.052032,11480,-558,-13147
36.067657,11471,-684,-13142
36.083282,11491,-877,-13010
36.098907,11445,-983,-13090
36.114532,11461,-986,-13156
36.130157,11586,-1036,-13111
36.145782,11652,-1097,-13156
36.161407,11761,-1181,-13113
36.177032,11841,-1268,-13115
36.192657,11866,-1272,-13154
36.208282,12018,-1257,-13097
36.223907,12141,-1254,-13111
36.239532,12243,-1199,-13083
36.255157,12341,-1166,-13086
36.270782,12359,-1209,-13163
36.286407,12391,-1125,-13020
36.302032,12437,-954,-12986
36.317657,12496,-854,-13138
36.333282,12557,-765,-13135
36.348907,12573,-720,-13140
36.364532,12505,-708,-13165
36.380157,12402,-638,-13128
36.395782,12344,-511,-13113
36.411407,12273,-370,-13129
36.427032,12230,-283,-13145
36.442657,12152,-338,-13154
36.458282,11996,-445,-13181
36.473907,11878,-463,-13103
36.489532,11777,-436,-13017
36.505157,11712,-420,-13085
36.520782,11700,-461,-13136
36.536407,11670,-588,-13119
36.552032,11623,-722,-13085
36.567657,11609,-850,-13072
36.583282,11595,-968,-13086
36.598907,11629,-1013,-13086
36.614532,11718,-1025,-13156
36.630157,11821,-1115,-13142
36.645782,11959,-1222,-13056
36.661407,11996,-1272,-13181
36.677032,12052,-1302,-13172
36.692657,12207,-1263,-13033
36.708282,12296,-1225,-13110
36.723907,12409,-1236,-13085
36.739532,12484,-1215,-13092
36.755157,12498,-1225,-13149
36.770782,12564,-1113,-12976
36.786407,12636,-925,-13063
36.802032,12680,-881,-13170
36.817657,12698,-786,-13063
36.833282,12739,-754,-13170
36.848907,12653,-750,-13136
36.864532,12548,-588,-13049
36.880157,12559,-470,-13144
36.895782,12469,-397,-13124
36.911407,12423,-343,-13158
36.927032,12350,-367,-13183
36.942657,12170,-399,-13142
36.958282,12087,-384,-13147
36.973907,11987,-420,-13020
36.989532,11891,-486,-13051
37.005157,11873,-515,-13178
37.020782,11846,-652,-13070
37.036407,11803,-775,-13095
37.052032,11775,-808,-13158
37.067657,11827,-916,-13033
37.083282,11891,-1022,-13063
37.098907,11941,-1079,-13183
37.114532,12053,-1170,-13117
37.130157,12153,-1257,-13099
37.145782,12214,-1288,-13233
37.161407,12343,-1277,-13128
37.177032,12437,-1270,-13001
37.192657,12450,-1320,-13167
37.208282,12577,-1304,-13104
37.223907,12691,-1200,-13024
37.239532,12730,-1163,-13140
37.255157,12837,-1043,-13060
37.270782,12914,-950,-13085
37.286407,12891,-950,-13129
37.302032,12869,-824,-13060
37.317657,12894,-749,-13119
37.333282,12844,-670,-13136
37.348907,12821,-540,-13158
37.364532,12784,-495,-13142
37.380157,12641,-442,-13104
37.395782,12582,-392,-13170
37.411407,12473,-388,-13099
37.427032,12336,-377,-13106
37.442657,12309,-377,-13194
37.458282,12220,-484,-13070
37.473907,12102,-595,-13088
37.489532,12052,-613,-13122
37.505157,12016,-683,-13017
37.520782,11998,-754,-13115
37.536407,12028,-831,-13149
37.552032,12062,-965,-13067
37.567657,12103,-1088,-13106
37.583282,12186,-1213,-13129
37.598907,12266,-1240,-13153
37.614532,12387,-1209,-13131
37.630157,12523,-1261,-13092
37.645782,12566,-1340,-13158
37.661407,12636,-1357,-13101
37.677032,12748,-1306,-13026
37.692657,12837,-1238,-13110
37.708282,12952,-1163,-13083
37.723907,13037,-1095,-13063
37.739532,13060,-1090,-13154
37.755157,13064,-1036,-13083
37.770782,13055,-906,-13036
37.786407,13039,-799,-13115
37.802032,13027,-666,-13110
37.817657,13034,-567,-13124
37.833282,12989,-552,-13144
37.848907,12871,-522,-13122
37.864532,12796,-449,-13165
37.880157,12719,-368,-13138
37.895782,12614,-324,-13122
37.911407,12539,-352,-13170
37.927032,12427,-454,-13081
37.942657,12321,-568,-13044
37.958282,12259,-627,-13083
37.973907,12202,-684,-13049
37.989532,12182,-750,-13122
38.005157,12191,-825,-13161
38.020782,12221,-949,-13065
38.036407,12253,-1084,-13074
38.052032,12319,-1158,-13106
38.067657,12414,-1213,-13133
38.083282,12509,-1266,-13172
38.098907,12662,-1257,-13103
38.114532,12759,-1288,-13106
38.130157,12778,-1363,-13153
38.145782,12878,-1332,-13083
38.161407,12996,-1229,-13070
38.177032,13098,-1152,-13061
38.192657,13198,-1108,-13058
38.208282,13239,-1091,-13167
38.223907,13239,-1043,-13129
38.239532,13246,-945,-13040
38.255157,13255,-843,-13086
38.270782,13212,-708,-13090
38.286407,13221,-586,-13133
38.302032,13218,-550,-13190
38.317657,13075,-547,-13131
38.333282,12994,-499,-13149
38.348907,12893,-413,-13153
38.364532,12761,-361,-13094
38.380157,12736,-368,-13129
38.395782,12636,-470,-13088
38.411407,12505,-592,-13081
38.427032,12444,-593,-13133
38.442657,12387,-629,-13058
38.458282,12362,-736,-13094
38.473907,12377,-827,-13149
38.489532,12425,-972,-13047
38.505157,12466,-1120,-13070
38.520782,12511,-1209,-13158
38.536407,12594,-1247,-13138
38.552032,12666,-1257,-13122
38.567657,12764,-1300,-13095
38.583282,12889,-1349,-13074
38.598907,12930,-1366,-13153
38.614532,13012,-1359,-13147
38.630157,13177,-1252,-13035
38.645782,13259,-1165,-13094
38.661407,13321,-1190,-13106
38.677032,13375,-1122,-13036
38.692657,13393,-1068,-13147
38.708282,13400,-993,-13106
38.723907,13414,-777,-13067
38.739532,13432,-677,-13167
38.755157,13369,-640,-13076
38.770782,13337,-606,-13076
38.786407,13241,-604,-13145
38.802032,13096,-486,-13119
38.817657,13107,-333,-13140
38.833282,13043,-343,-13156
38.848907,12893,-422,-13199
38.864532,12759,-500,-13117
38.880157,12611,-625,-12988
38.895782,12536,-620,-13067
38.911407,12527,-618,-13056
38.927032,12539,-731,-13101
38.942657,12562,-804,-13224
38.958282,12607,-975,-13045
38.973907,12591,-1168,-13001
38.989532,12584,-1200,-13147
39.005157,12716,-1193,-13129
39.020782,12846,-1218,-13142
39.036407,12969,-1282,-13131
39.052032,13073,-1377,-13110
39.067657,13094,-1427,-13161
39.083282,13178,-1350,-13078
39.098907,13323,-1229,-12994
39.114532,13412,-1200,-13051
39.130157,13473,-1184,-13101
39.145782,13534,-1136,-13135
39.161407,13584,-1084,-13113
39.177032,13575,-954,-13051
39.192657,13555,-806,-13111
39.208282,13555,-716,-13095
39.223907,13502,-636,-13051
39.239532,13487,-600,-13188
39.255157,13396,-568,-13160
39.270782,13260,-463,-13120
39.286407,13264,-358,-13228
39.302032,13152,-392,-13104
39.317657,12994,-490,-13074
39.333282,12941,-527,-13156
39.348907,12811,-602,-13019
39.364532,12705,-654,-13020
39.380157,12700,-658,-13135
39.395782,12718,-766,-13119
39.411407,12739,-906,-13094
39.427032,12748,-1004,-13060
39.442657,12800,-1152,-13063
39.458282,12853,-1247,-13163
39.473907,12925,-1218,-13179
39.489532,13055,-1225,-13086
39.505157,13153,-1327,-13103
39.520782,13252,-1402,-13169
39.536407,13375,-1379,-13120
39.552032,13459,-1315,-13051
39.567657,13559,-1245,-13058
39.583282,13684,-1186,-13106
39.598907,13735,-1147,-13085
39.614532,13762,-1084,-13076
39.630157,13828,-1047,-13140
39.645782,13830,-963,-13095
39.661407,13819,-777,-13086
39.677032,13810,-679,-13135
39.692657,13750,-640,-13072
39.708282,13716,-577,-13126
39.723907,13625,-538,-13192
39.739532,13496,-497,-13133
39.755157,13446,-420,-13169
39.770782,13368,-413,-13163
39.786407,13230,-481,-13072
39.802032,13128,-545,-13054
39.817657,13055,-633,-13042
39.833282,12989,-677,-13063
39.848907,12955,-688,-13110
39.864532,12996,-799,-13131
39.880157,13043,-956,-13122
39.895782,13077,-1095,-13049
39.911407,13143,-1213,-13065
39.927032,13187,-1265,-13161
39.942657,13307,-1263,-13142
39.958282,13482,-1300,-13111
39.973907,13553,-1388,-13142
39.989532,13626,-1415,-13086
40.005157,13712,-1391,-13074
40.020782,13782,-1350,-13101
40.036407,13918,-1245,-12994
40.052032,14030,-1166,-13019
40.067657,14096,-1131,-13161
40.083282,14153,-1068,-13136
40.098907,14157,-1004,-13094
40.114532,14125,-902,-13088
40.130157,14089,-756,-13079
40.145782,14076,-649,-13111
40.161407,14055,-593,-13124
40.177032,14007,-552,-13160
40.192657,13926,-504,-13176
40.208282,13793,-456,-13147
40.223907,13682,-427,-13153
40.239532,13600,-429,-13076
40.255157,13507,-504,-13044
40.270782,13430,-608,-13138
40.286407,13373,-716,-13056
40.302032,13344,-813,-12990
40.317657,13325,-836,-13136
40.333282,13364,-925,-13085
40.348907,13439,-1079,-12988
40.364532,13471,-1172,-13128
40.380157,13566,-1257,-13142
40.395782,13685,-1332,-13090
40.411407,13769,-1354,-13176
40.427032,13921,-1352,-13129
40.442657,14046,-1374,-13035
40.458282,14098,-1409,-13101
40.473907,14196,-1372,-13129
40.489532,14319,-1279,-13060
40.505157,14410,-1174,-13017
40.520782,14500,-1079,-13111
40.536407,14551,-1070,-13117
40.552032,14528,-1015,-13010
40.567657,14560,-933,-13147
40.583282,14573,-861,-13176
40.598907,14487,-670,-13049
40.614532,14467,-574,-13167
40.630157,14391,-581,-13158
40.645782,14262,-549,-13070
40.661407,14200,-520,-13163
40.677032,14068,-477,-13115
40.692657,13993,-461,-13101
40.708282,13969,-540,-13145
40.723907,13844,-654,-13081
40.739532,13759,-727,-13067
40.755157,13748,-841,-13011
40.770782,13719,-933,-13061
40.786407,13766,-988,-13172
40.802032,13898,-1111,-13081
40.817657,13957,-1249,-13108
40.833282,14019,-1359,-13165
40.848907,14135,-1395,-13060
40.864532,14214,-1370,-13106
40.880157,14344,-1386,-13138
40.895782,14523,-1390,-13058
40.911407,14594,-1399,-13115
40.927032,14667,-1379,-13101
40.942657,14796,-1275,-13004
40.958282,14842,-1216,-13024
40.973907,14883,-1129,-13058
40.989532,14967,-1033,-13128
41.005157,14996,-959,-13131
41.020782,14962,-838,-13060
41.036407,14937,-747,-13122
41.052032,14892,-665,-13138
41.067657,14810,-592,-13085
41.083282,14767,-568,-13156
41.098907,14691,-538,-13186
41.114532,14571,-527,-13129
41.130157,14473,-540,-13120
41.145782,14350,-534,-13094
41.161407,14246,-604,-13051
41.177032,14182,-752,-13056
41.192657,14171,-854,-13081
41.208282,14180,-915,-13111
41.223907,14189,-999,-13097
41.239532,14284,-1100,-13078
41.255157,14348,-1257,-13103
41.270782,14387,-1356,-13095
41.286407,14521,-1338,-13099
41.302032,14621,-1411,-13172
41.317657,14762,-1443,-13113
41.333282,14926,-1409,-13051
41.348907,14958,-1456,-13163
41.364532,15033,-1386,-13078
41.380157,15175,-1290,-12985
41.395782,15246,-1293,-13101
41.411407,15301,-1184,-13070
41.427032,15362,-1061,-13053
41.442657,15376,-1015,-13094
41.458282,15396,-908,-13131
41.473907,15408,-804,-13181
41.489532,15307,-738,-13099
41.505157,15244,-670,-13131
41.520782,15162,-604,-13174
41.536407,15021,-533,-13106
41.552032,14992,-484,-13178
41.567657,14882,-543,-13153
41.583282,14734,-659,-13072
41.598907,14669,-699,-13099
41.614532,14601,-763,-13024
41.630157,14562,-850,-13044
41.645782,14567,-922,-13119
41.661407,14616,-1043,-13076
41.677032,14655,-1152,-13095
41.692657,14712,-1270,-13090
41.708282,14807,-1402,-13081
41.723907,14908,-1445,-13161
41.739532,15055,-1418,-13136
41.755157,15208,-1429,-13042
41.770782,15296,-1454,-13108
41.786407,15353,-1441,-13115
41.802032,15466,-1381,-12988
41.817657,15583,-1352,-13036
41.833282,15657,-1334,-13053
41.848907,15724,-1220,-13013
41.864532,15791,-1125,-13145
41.880157,15787,-1016,-13140
41.895782,15767,-886,-13086
41.911407,15751,-841,-13153
41.927032,15619,-763,-13085
41.942657,15537,-654,-13078
41.958282,15523,-604,-13181
41.973907,15432,-563,-13165
41.989532,15351,-568,-13174
42.005157,15219,-618,-13144
42.020782,15064,-640,-13017
42.036407,14989,-691,-12994
42.052032,14948,-808,-13020
42.067657,14957,-911,-13083
42.083282,15001,-1009,-13138
42.098907,15044,-1125,-13094
42.114532,15062,-1243,-13070
42.130157,15112,-1354,-13063
42.145782,15223,-1424,-13081
42.161407,15339,-1447,-13158
42.177032,15498,-1484,-13120
42.192657,15642,-1515,-13119
42.208282,15735,-1513,-13174
42.223907,15835,-1450,-13020
42.239532,15891,-1384,-12970
42.255157,15953,-1407,-13045
42.270782,16051,-1293,-12994
42.286407,16123,-1147,-13097
42.302032,16158,-1102,-13194
42.317657,16162,-979,-13103
42.333282,16126,-920,-13085
42.348907,16010,-849,-13090
42.364532,15930,-677,-13103
42.380157,15916,-602,-13153
42.395782,15842,-590,-13185
42.411407,15733,-574,-13228
42.427032,15623,-615,-13147
42.442657,15483,-699,-13010
42.458282,15353,-733,-12988
42.473907,15301,-784,-13013
42.489532,15323,-911,-13070
42.505157,15342,-1033,-13120
42.520782,15357,-1158,-13110
42.536407,15385,-1284,-13079
42.552032,15441,-1379,-13036
42.567657,15544,-1432,-13094
42.583282,15646,-1463,-13190
42.598907,15799,-1497,-13092
42.614532,15976,-1520,-13095
42.630157,16071,-1559,-13188
42.645782,16139,-1497,-13033
42.661407,16176,-1409,-12933
42.677032,16255,-1399,-12983
42.692657,16369,-1265,-13044
42.708282,16387,-1147,-13172
42.723907,16373,-1124,-13186
42.739532,16389,-1022,-13108
42.755157,16358,-911,-13074
42.770782,16292,-827,-13033
42.786407,16273,-729,-13074
42.802032,16244,-615,-13172
42.817657,16194,-602,-13224
42.833282,16133,-674,-13245
42.848907,15960,-686,-13158
42.864532,15780,-713,-12976
42.880157,15674,-793,-12933
42.895782,15612,-827,-13070
42.911407,15658,-881,-13136
42.927032,15701,-1040,-13142
42.942657,15692,-1170,-13128
42.958282,15717,-1291,-13001
42.973907,15755,-1427,-13022
42.989532,15857,-1465,-13179
43.005157,16051,-1457,-13158
43.020782,16224,-1497,-13147
43.036407,16321,-1550,-13204
43.052032,16364,-1556,-13111
43.067657,16369,-1543,-12983
43.083282,16374,-1484,-12908
43.098907,16385,-1370,-12969
43.114532,16382,-1284,-13126
43.130157,16382,-1188,-13165
43.145782,16382,-1099,-13142
43.161407,16382,-1045,-13065
43.177032,16382,-945,-12981
43.192657,16383,-813,-13028
43.208282,16382,-733,-13104
43.223907,16378,-647,-13215
43.239532,16392,-586,-13301
43.255157,16339,-670,-13194
43.270782,16185,-711,-13061
43.286407,16032,-718,-12936
43.302032,15946,-824,-12912
43.317657,15948,-900,-13110
43.333282,15996,-995,-13172
43.348907,16030,-1113,-13145
43.364532,16001,-1211,-13129
43.380157,15998,-1363,-12992
43.395782,16087,-1459,-13024
43.411407,16217,-1477,-13185
43.427032,16342,-1499,-13151
43.442657,16390,-1536,-13104
43.458282,16380,-1582,-13160
43.473907,16382,-1588,-13094
43.489532,16383,-1515,-12954
43.505157,16382,-1413,-12958
43.520782,16382,-1334,-13047
43.536407,16382,-1263,-13138
43.552032,16382,-1199,-13165
43.567657,16382,-1111,-13119
43.583282,16382,-1027,-13094
43.598907,16382,-929,-13058
43.614532,16382,-774,-13079
43.630157,16382,-661,-13161
43.645782,16382,-629,-13217
43.661407,16385,-649,-13242
43.677032,16373,-704,-13110
43.692657,16346,-741,-12988
43.708282,16307,-768,-13015
43.723907,16273,-872,-13022
43.739532,16278,-981,-13106
43.755157,16267,-1086,-13183
43.770782,16246,-1249,-13099
43.786407,16262,-1359,-13044
43.802032,16301,-1409,-13010
43.817657,16355,-1506,-13076
43.833282,16383,-1582,-13194
43.848907,16382,-1584,-13135
43.864532,16382,-1604,-13144
43.880157,16382,-1602,-13160
43.895782,16382,-1524,-12967
43.911407,16382,-1466,-12935
43.927032,16382,-1449,-13017
43.942657,16382,-1338,-13045
43.958282,16382,-1257,-13194
43.973907,16382,-1179,-13174
43.989532,16382,-981,-13069
44.005157,16382,-900,-13119
44.020782,16382,-877,-13031
44.036407,16382,-775,-13074
44.052032,16382,-686,-13245
44.067657,16382,-666,-13190
44.083282,16382,-684,-13185
44.098907,16382,-706,-13128
44.114532,16385,-797,-12953
44.130157,16378,-884,-12970
44.145782,16365,-963,-13020
44.161407,16371,-1084,-13119
44.177032,16382,-1156,-13219
44.192657,16383,-1279,-13054
44.208282,16382,-1495,-13004
44.223907,16382,-1604,-13129
44.239532,16382,-1586,-13097
44.255157,16382,-1536,-13072
44.270782,16382,-1518,-13128
44.286407,16382,-1559,-13131
44.302032,16382,-1586,-13079
44.317657,16382,-1531,-13010
44.333282,16382,-1466,-12972
44.348907,16382,-1374,-12983
44.364532,16382,-1238,-13076
44.380157,16382,-1122,-13169
44.395782,16382,-1036,-13131
44.411407,16382,-1000,-13076
44.427032,16382,-938,-13072
44.442657,16382,-816,-13067
44.458282,16382,-711,-13117
44.473907,16382,-636,-13224
44.489532,16382,-650,-13213
44.505157,16382,-763,-13095
44.520782,16382,-845,-13031
44.536407,16382,-909,-12954
44.552032,16382,-1006,-12961
44.567657,16382,-1079,-13131
44.583282,16382,-1175,-13188
44.598907,16382,-1320,-13083
44.614532,16382,-1468,-13004
44.630157,16382,-1559,-13051
44.645782,16382,-1568,-13110
44.661407,16382,-1550,-13054
44.677032,16382,-1545,-13110
44.692657,16382,-1591,-13235
44.708282,16382,-1590,-13097
44.723907,16382,-1518,-12995
44.739532,16382,-1495,-12976
44.755157,16382,-1382,-12903
44.770782,16382,-1263,-13104
44.786407,16382,-1216,-13242
44.802032,16382,-1059,-13145
44.817657,16382,-977,-13163
44.833282,16382,-979,-13063
44.848907,16382,-863,-13001
44.864532,16382,-720,-13144
44.880157,16382,-683,-13170
44.895782,16382,-704,-13210
44.911407,16382,-752,-13185
44.927032,16382,-870,-12999
44.942657,16382,-952,-12929
44.958282,16382,-1029,-12953
44.973907,16382,-1129,-13072
44.989532,16382,-1200,-13197
45.005157,16382,-1331,-13165
45.020782,16382,-1495,-13086
45.036407,16382,-1584,-13044
45.052032,16382,-1607,-13065
45.067657,16382,-1595,-13090
45.083282,16382,-1581,-13099
45.098907,16382,-1574,-13136
45.114532,16382,-1561,-13126
45.130157,16382,-1552,-13010
45.145782,16382,-1500,-12906
45.161407,16382,-1409,-12979
45.177032,16382,-1318,-13117
45.192657,16382,-1174,-13183
45.208282,16382,-1066,-13208
45.223907,16382,-1036,-13117
45.239532,16382,-934,-13029
45.255157,16382,-829,-13056
45.270782,16382,-763,-13083
45.286407,16382,-659,-13178
45.302032,16382,-665,-13253
45.317657,16382,-816,-13169
45.333282,16382,-888,-13017
45.348907,16382,-940,-12888
45.364532,16382,-1063,-12961
45.380157,16382,-1156,-13104
45.395782,16382,-1266,-13129
45.411407,16382,-1400,-13138
45.427032,16382,-1543,-13097
45.442657,16382,-1668,-13045
45.458282,16382,-1686,-13101
45.473907,16382,-1632,-13119
45.489532,16382,-1588,-13054
45.505157,16382,-1586,-13110
45.520782,16382,-1613,-13136
45.536407,16382,-1572,-12976
45.552032,16382,-1461,-12910
45.567657,16382,-1361,-13019
45.583282,16382,-1247,-13133
45.598907,16382,-1097,-13181
45.614532,16382,-1022,-13176
45.630157,16382,-1006,-13122
45.645782,16382,-924,-13008
45.661407,16382,-811,-13022
45.677032,16382,-713,-13172
45.692657,16382,-686,-13197
45.708282,16382,-759,-13194
45.723907,16382,-847,-13158
45.739532,16382,-956,-12926
45.755157,16382,-1040,-12865
45.770782,16382,-1081,-13040
45.786407,16382,-1184,-13142
45.802032,16382,-1325,-13140
45.817657,16382,-1502,-13054
45.833282,16382,-1640,-13069
45.848907,16382,-1675,-13153
45.864532,16382,-1672,-13078
45.880157,16382,-1607,-13020
45.895782,16382,-1588,-13090
45.911407,16382,-1643,-13145
45.927032,16382,-1606,-13074
45.942657,16382,-1506,-12958
45.958282,16382,-1449,-12986
45.973907,16382,-1352,-13035
45.989532,16382,-1170,-13060
46.005157,16382,-1045,-13169
46.020782,16382,-1018,-13174
46.036407,16382,-958,-13076
46.052032,16382,-850,-13119
46.067657,16382,-766,-13156
46.083282,16382,-749,-13081
46.098907,16382,-768,-13140
46.114532,16382,-795,-13170
46.130157,16382,-891,-13026
46.145782,16382,-991,-13006
46.161407,16382,-1070,-13026
46.177032,16382,-1177,-12988
46.192657,16382,-1299,-13097
46.208282,16382,-1461,-13160
46.223907,16382,-1602,-13072
46.239532,16382,-1627,-13079
46.255157,16382,-1645,-13138
46.270782,16382,-1686,-13076
46.286407,16382,-1656,-13049
46.302032,16382,-1631,-13124
46.317657,16382,-1609,-13051
46.333282,16382,-1522,-12972
46.348907,16382,-1488,-13044
46.364532,16382,-1413,-12999
46.380157,16382,-1268,-13019
46.395782,16382,-1161,-13201
46.411407,16382,-1047,-13178
46.427032,16382,-959,-13094
46.442657,16382,-904,-13185
46.458282,16382,-849,-13160
46.473907,16382,-806,-13060
46.489532,16382,-736,-13140
46.505157,16382,-716,-13120
46.520782,16382,-852,-13058
46.536407,16382,-990,-13097
46.552032,16382,-1083,-12972
46.567657,16382,-1204,-12963
46.583282,16382,-1327,-13145
46.598907,16382,-1399,-13106
46.614532,16382,-1475,-13042
46.630157,16382,-1638,-13106
46.645782,16382,-1734,-13129
46.661407,16382,-1715,-13113
46.677032,16382,-1663,-13060
46.692657,16382,-1595,-13074
46.708282,16382,-1574,-13081
46.723907,16382,-1541,-13008
46.739532,16382,-1516,-13060
46.755157,16382,-1497,-13045
46.770782,16382,-1325,-12986
46.786407,16382,-1147,-13147
46.802032,16382,-1065,-13181
46.817657,16382,-1000,-13090
46.833282,16382,-974,-13153
46.848907,16382,-934,-13131
46.864532,16382,-808,-13060
46.880157,16382,-720,-13136
46.895782,16382,-736,-13161
46.911407,16382,-824,-13067
46.927032,16382,-984,-13022
46.942657,16382,-1120,-12992
46.958282,16382,-1199,-12965
46.973907,16382,-1272,-13070
46.989532,16382,-1343,-13160
47.005157,16382,-1447,-13124
47.020782,16382,-1629,-13083
47.036407,16382,-1736,-13111
47.052032,16382,-1700,-13147
47.067657,16382,-1663,-13069
47.083282,16382,-1636,-13035
47.098907,16382,-1607,-13076
47.114532,16382,-1584,-13044
47.130157,16382,-1593,-13028
47.145782,16382,-1525,-13006
47.161407,16382,-1345,-13013
47.177032,16382,-1208,-13106
47.192657,16382,-1072,-13149
47.208282,16382,-1002,-13160
47.223907,16382,-1002,-13128
47.239532,16382,-931,-13074
47.255157,16382,-804,-13122
47.270782,16382,-700,-13147
47.286407,16382,-731,-13115
47.302032,16382,-852,-13129
47.317657,16382,-1011,-13038
47.333282,16382,-1127,-12917
47.348907,16382,-1150,-12967
47.364532,16382,-1236,-13097
47.380157,16382,-1332,-13151
47.395782,16382,-1472,-13049
47.411407,16382,-1686,-13056
47.427032,16382,-1722,-13176
47.442657,16382,-1672,-13079
47.458282,16382,-1663,-13056
47.473907,16382,-1649,-13156
47.489532,16382,-1604,-13022
47.505157,16382,-1604,-13026
47.520782,16382,-1649,-13067
47.536407,16382,-1497,-12899
47.552032,16382,-1334,-13033
47.567657,16382,-1224,-13199
47.583282,16382,-1070,-13110
47.598907,16382,-1054,-13126
47.614532,16382,-1033,-13144
47.630157,16382,-936,-13056
47.645782,16382,-820,-13108
47.661407,16382,-704,-13197
47.677032,16382,-740,-13140
47.692657,16382,-893,-13120
47.708282,16382,-1018,-13061
47.723907,16382,-1111,-12903
47.739532,16382,-1165,-12967
47.755157,16382,-1222,-13129
47.770782,16382,-1357,-13099
47.786407,16382,-1527,-13072
47.802032,16382,-1643,-13124
47.817657,16382,-1706,-13128
47.833282,16382,-1718,-13135
47.848907,16382,-1693,-13086
47.864532,16382,-1640,-13017
47.880157,16382,-1638,-13090
47.895782,16382,-1681,-13061
47.911407,16382,-1604,-12917
47.927032,16382,-1475,-12976
47.942657,16382,-1384,-13095
47.958282,16382,-1232,-13111
47.973907,16382,-1106,-13124
47.989532,16382,-1075,-13135
48.005157,16382,-1022,-13086
48.020782,16382,-922,-13083
48.036407,16382,-774,-13181
48.052032,16382,-688,-13140
48.067657,16382,-790,-13094
48.083282,16382,-895,-13158
48.098907,16382,-993,-12963
48.114532,16382,-1127,-12853
48.130157,16382,-1154,-13070
48.145782,16382,-1213,-13095
48.161407,16382,-1393,-13049
48.177032,16382,-1563,-13126
48.192657,16382,-1686,-13103
48.208282,16382,-1774,-13106
48.223907,16382,-1761,-13147
48.239532,16382,-1665,-13076
48.255157,16382,-1656,-13031
48.270782,16382,-1682,-13067
48.286407,16382,-1661,-13045
48.302032,16382,-1616,-12979
48.317657,16382,-1504,-13015
48.333282,16382,-1343,-13119
48.348907,16382,-1209,-13085
48.364532,16382,-1120,-13036
48.380157,16382,-1065,-13158
48.395782,16382,-999,-13178
48.411407,16382,-891,-13115
48.427032,16382,-772,-13149
48.442657,16382,-759,-13119
48.458282,16382,-856,-13088
48.473907,16382,-915,-13070
48.489532,16382,-988,-12985
48.505157,16382,-1111,-12988
48.520782,16382,-1193,-13040
48.536407,16382,-1286,-13086
48.552032,16382,-1427,-13094
48.567657,16382,-1577,-13063
48.583282,16382,-1718,-13124
48.598907,16382,-1738,-13133
48.614532,16382,-1690,-13056
48.630157,16382,-1724,-13085
48.645782,16382,-1738,-13113
48.661407,16382,-1684,-13028
48.677032,16382,-1622,-12997
48.692657,16382,-1570,-13003
48.708282,16382,-1477,-12986
48.723907,16382,-1363,-13045
48.739532,16382,-1238,-13094
48.755157,16382,-1106,-13156
48.770782,16382,-1043,-13190
48.786407,16382,-981,-13095
48.802032,16382,-884,-13097
48.817657,16382,-820,-13117
48.833282,16382,-815,-13088
48.848907,16382,-834,-13160
48.864532,16382,-906,-13086
48.880157,16382,-1041,-12967
48.895782,16382,-1138,-13024
48.911407,16382,-1227,-12970
48.927032,16382,-1332,-12994
48.942657,16382,-1470,-13195
48.958282,16382,-1652,-13113
48.973907,16382,-1738,-13006
48.989532,16382,-1734,-13147
49.005157,16382,-1731,-13136
49.020782,16382,-1700,-12999
49.036407,16382,-1688,-13044
49.052032,16382,-1668,-13101
49.067657,16382,-1627,-12994
49.083282,16382,-1559,-12954
49.098907,16382,-1463,-13051
49.114532,16382,-1357,-13047
49.130157,16382,-1177,-13067
49.145782,16382,-1058,-13208
49.161407,16382,-1034,-13160
49.177032,16382,-986,-13078
49.192657,16382,-933,-13136
49.208282,16382,-865,-13094
49.223907,16382,-802,-13072
49.239532,16382,-806,-13156
49.255157,16382,-943,-13090
49.270782,16382,-1095,-12986
49.286407,16382,-1159,-12978
49.302032,16382,-1263,-12981
49.317657,16382,-1382,-13047
49.333282,16382,-1475,-13124
49.348907,16382,-1600,-13122
49.364532,16382,-1749,-13119
49.380157,16382,-1829,-13115
49.395782,16382,-1766,-13061
49.411407,16382,-1693,-13045
49.427032,16382,-1677,-13040
49.442657,16382,-1632,-13008
49.458282,16382,-1611,-13022
49.473907,16382,-1591,-13015
49.489532,16382,-1477,-13024
49.505157,16382,-1309,-13076
49.520782,16382,-1143,-13124
49.536407,16382,-1068,-13169
49.552032,16382,-1047,-13097
49.567657,16382,-974,-13085
49.583282,16382,-874,-13179
49.598907,16382,-825,-13110
49.614532,16382,-799,-13113
49.630157,16382,-818,-13140
49.645782,16382,-991,-12976
49.661407,16382,-1145,-12974
49.677032,16382,-1209,-13010
49.692657,16382,-1338,-12972
49.708282,16382,-1420,-13135
49.723907,16382,-1504,-13167
49.739532,16382,-1663,-13004
49.755157,16382,-1745,-13069
49.770782,16382,-1766,-13185
49.786407,16382,-1749,-13095
49.802032,16382,-1693,-13022
49.817657,16382,-1652,-13072
49.833282,16382,-1672,-13074
49.848907,16382,-1670,-12972
49.864532,16382,-1543,-12985
49.880157,16382,-1413,-13103
49.895782,16382,-1249,-13090
49.911407,16382,-1102,-13099
49.927032,16382,-1077,-13158
49.942657,16382,-1025,-13083
49.958282,16382,-959,-13051
49.973907,16382,-879,-13138
49.989532,16382,-779,-13167
50.005157,16382,-800,-13124
50.020782,16382,-938,-13074
50.036407,16382,-1081,-13001
50.052032,16382,-1161,-12920
50.067657,16382,-1243,-12960
50.083282,16382,-1338,-13144
50.098907,16382,-1425,-13151
50.114532,16382,-1588,-12997
50.130157,16382,-1734,-13076
50.145782,16382,-1786,-13144
50.161407,16382,-1766,-13045
50.177032,16382,-1716,-13088
50.192657,16382,-1681,-13104
50.208282,16382,-1659,-13015
50.223907,16382,-1695,-13013
50.239532,16382,-1659,-12985
50.255157,16382,-1491,-12974
50.270782,16382,-1322,-13103
50.286407,16382,-1172,-13176
50.302032,16382,-1090,-13122
50.317657,16382,-1088,-13078
50.333282,16382,-1061,-13092
50.348907,16382,-954,-13115
50.364532,16382,-815,-13140
50.380157,16382,-770,-13147
50.395782,16382,-868,-13140
50.411407,16382,-997,-13060
50.427032,16382,-1140,-12920
50.442657,16382,-1252,-12944
50.458282,16382,-1286,-13054
50.473907,16382,-1352,-13120
50.489532,16382,-1482,-13151
50.505157,16382,-1672,-13045
50.520782,16382,-1820,-13049
50.536407,16382,-1809,-13186
50.552032,16382,-1727,-13054
50.567657,16382,-1668,-12951
50.583282,16382,-1697,-13081
50.598907,16382,-1699,-13072
50.614532,16382,-1641,-12999
50.630157,16382,-1586,-12992
50.645782,16382,-1427,-13036
50.661407,16382,-1250,-13085
50.677032,16382,-1147,-13060
50.692657,16382,-1077,-13149
50.708282,16382,-1045,-13192
50.723907,16382,-979,-13122
50.739532,16382,-840,-13185
50.755157,16382,-788,-13129
50.770782,16382,-843,-13051
50.786407,16382,-890,-13067
50.802032,16382,-1050,-12958
50.817657,16382,-1184,-13010
50.833282,16382,-1211,-13072
50.848907,16382,-1349,-12999
50.864532,16382,-1443,-13094
50.880157,16382,-1556,-13078
50.895782,16382,-1749,-13017
50.911407,16382,-1795,-13181
50.927032,16382,-1749,-13154
50.942657,16382,-1718,-12979
50.958282,16382,-1722,-13083
50.973907,16382,-1732,-13119
50.989532,16382,-1681,-12910
51.005157,16382,-1600,-12963
51.020782,16382,-1534,-13101
51.036407,16382,-1359,-13006
51.052032,16382,-1174,-13088
51.067657,16382,-1125,-13235
51.083282,16382,-1074,-13111
51.098907,16382,-995,-13074
51.114532,16382,-904,-13161
51.130157,16382,-811,-13106
51.145782,16382,-799,-13101
51.161407,16382,-856,-13190
51.177032,16382,-977,-13061
51.192657,16382,-1113,-12945
51.208282,16382,-1215,-13053
51.223907,16382,-1302,-13001
51.239532,16382,-1391,-12994
51.255157,16382,-1506,-13219
51.270782,16382,-1641,-13106
51.286407,16382,-1765,-12963
51.302032,16382,-1836,-13238
51.317657,16382,-1809,-13172
51.333282,16382,-1722,-12876
51.348907,16382,-1704,-13060
51.364532,16382,-1688,-13128
51.380157,16382,-1638,-12935
51.395782,16382,-1618,-12995
51.411407,16382,-1497,-13072
51.427032,16382,-1275,-13042
51.442657,16382,-1122,-13101
51.458282,16382,-1091,-13213
51.473907,16382,-1074,-13144
51.489532,16382,-1013,-13029
51.505157,16382,-881,-13178
51.520782,16382,-754,-13144
51.536407,16382,-818,-13033
51.552032,16382,-881,-13195
51.567657,16382,-1013,-13047
51.583282,16382,-1245,-12899
51.598907,16382,-1259,-13042
51.614532,16382,-1336,-13011
51.630157,16382,-1486,-13111
51.645782,16382,-1543,-13167
51.661407,16382,-1727,-13006
51.677032,16382,-1861,-13136
51.692657,16382,-1838,-13192
51.708282,16382,-1788,-13022
51.723907,16382,-1741,-13056
51.739532,16382,-1690,-13049
51.755157,16382,-1682,-12970
51.770782,16382,-1709,-13029
51.786407,16382,-1638,-13054
51.802032,16382,-1500,-13020
51.817657,16382,-1299,-13054
51.833282,16382,-1145,-13181
51.848907,16382,-1143,-13181
51.864532,16382,-1129,-13076
51.880157,16382,-1031,-13138
51.895782,16382,-899,-13151
51.911407,16382,-829,-13061
51.927032,16382,-881,-13129
51.942657,16382,-1031,-13095
51.958282,16382,-1209,-12908
51.973907,16382,-1291,-12969
51.989532,16382,-1315,-13108
52.005157,16382,-1377,-13081
52.020782,16382,-1534,-13092
52.036407,16382,-1718,-13129
52.052032,16382,-1809,-13056
52.067657,16382,-1859,-13095
52.083282,16382,-1816,-13201
52.098907,16382,-1715,-13024
52.114532,16382,-1684,-12961
52.130157,16382,-1731,-13153
52.145782,16382,-1732,-13049
52.161407,16382,-1609,-12949
52.177032,16382,-1518,-13094
52.192657,16382,-1370,-13092
52.208282,16382,-1158,-13110
52.223907,16382,-1125,-13147
52.239532,16382,-1156,-13070
52.255157,16382,-1072,-13024
52.270782,16382,-925,-13081
52.286407,16382,-793,-13219
52.302032,16382,-797,-13154
52.317657,16382,-915,-13085
52.333282,16382,-988,-13088
52.348907,16382,-1090,-12906
52.364532,16382,-1188,-12951
52.380157,16382,-1154,-13122
52.395782,16382,-1240,-13129
52.411407,16382,-1452,-13138
52.427032,16382,-1588,-13017
52.442657,16382,-1704,-13026
52.458282,16382,-1757,-13203
52.473907,16382,-1677,-13067
52.489532,16382,-1602,-13020
52.505157,16382,-1659,-13197
52.520782,16382,-1736,-13115
52.536407,16382,-1722,-12974
52.552032,16382,-1638,-12985
52.567657,16382,-1484,-13019
52.583282,16382,-1316,-13099
52.598907,16382,-1229,-13158
52.614532,16382,-1199,-13120
52.630157,16382,-1172,-13024
52.645782,16382,-1081,-12953
52.661407,16382,-868,-13070
52.677032,16383,-677,-13192
52.692657,16376,-668,-13222
52.708282,16390,-756,-13253
52.723907,16364,-856,-13097
52.739532,16228,-961,-12904
52.755157,16096,-961,-12972
52.770782,16048,-983,-13036
52.786407,16057,-1102,-13094
52.802032,16073,-1193,-13213
52.817657,16083,-1395,-13072
52.833282,16057,-1611,-12985
52.848907,15980,-1620,-13197
52.864532,16057,-1577,-13160
52.880157,16239,-1574,-13008
52.895782,16258,-1631,-13144
52.911407,16274,-1732,-13190
52.927032,16326,-1688,-13079
52.942657,16289,-1581,-13017
52.958282,16315,-1479,-12931
52.973907,16369,-1356,-13010
52.989532,16358,-1336,-13179
53.005157,16365,-1293,-13188
53.020782,16373,-1166,-13170
53.036407,16274,-1043,-13110
53.052032,16164,-904,-13056
53.067657,16083,-779,-13120
53.083282,15971,-724,-13135
53.098907,15899,-711,-13183
53.114532,15758,-724,-13199
53.130157,15524,-770,-13111
53.145782,15353,-765,-13049
53.161407,15214,-775,-12953
53.177154,15101,-856,-12997
53.192779,15048,-963,-13090
53.208404,15008,-1166,-13111
53.224029,14958,-1270,-13195
53.239654,14950,-1286,-13081
53.255279,14962,-1416,-13022
53.270904,14942,-1495,-13181
53.286529,15033,-1491,-13092
53.302154,15155,-1525,-13074
53.317779,15176,-1615,-13278
53.333404,15287,-1661,-13170
53.349029,15378,-1579,-12990
53.364654,15350,-1488,-13028
53.380279,15376,-1450,-13003
53.395904,15417,-1391,-13036
53.411529,15455,-1284,-13176
53.427154,15473,-1193,-13135
53.442779,15439,-1108,-13063
53.458404,15335,-977,-13111
53.474029,15230,-884,-13117
53.489654,15155,-865,-13099
53.505279,14996,-786,-13111
53.520904,14907,-620,-13211
53.536529,14844,-543,-13260
53.552154,14644,-622,-13165
53.567779,14459,-666,-13142
53.583404,14262,-736,-13029
53.599029,14085,-886,-12945
53.614654,14044,-850,-13106
53.630279,14030,-836,-13129
53.645904,13953,-970,-13113
53.661529,13889,-1129,-13106
53.677154,13901,-1313,-12967
53.692779,13900,-1381,-13049
53.708404,13937,-1390,-13208
53.724029,14060,-1422,-13131
53.739654,14178,-1457,-13076
53.755279,14228,-1532,-13124
53.770904,14209,-1563,-13142
53.786529,14237,-1506,-13056
53.802154,14317,-1411,-12970
53.817779,14378,-1361,-13035
53.833404,14432,-1338,-13078
53.849029,14457,-1281,-13088
53.864654,14444,-1213,-13145
53.880279,14391,-1095,-13126
53.895904,14341,-952,-13095
53.911529,14271,-833,-13076
53.927154,14175,-763,-13078
53.942779,14093,-715,-13156
53.958404,13950,-622,-13206
53.974029,13823,-531,-13231
53.989654,13723,-517,-13192
54.005279,13550,-518,-13067
54.020904,13378,-543,-13058
54.036529,13210,-666,-13110
54.052154,13087,-756,-13063
54.067779,13071,-752,-13038
54.083404,13009,-788,-13147
54.099029,12903,-909,-13156
54.114654,12909,-1065,-12994
54.130279,12902,-1199,-13051
54.145904,12891,-1297,-13183
54.161529,12993,-1359,-13074
54.177032,13044,-1340,-13119
54.192657,13069,-1368,-13244
54.208282,13164,-1468,-13078
54.223907,13182,-1479,-13067
54.239532,13191,-1457,-13235
54.255157,13312,-1425,-13120
54.270782,13410,-1329,-12992
54.286407,13403,-1270,-13065
54.302032,13389,-1234,-13097
54.317657,13428,-1156,-13074
54.333282,13414,-1083,-13131
54.348907,13371,-941,-13178
54.364532,13310,-802,-13090
54.380157,13237,-806,-13069
54.395782,13152,-716,-13128
54.411407,12991,-583,-13081
54.427032,12918,-563,-13153
54.442657,12839,-517,-13197
54.458282,12632,-504,-13106
54.473907,12486,-533,-13142
54.489532,12328,-558,-13065
54.505157,12173,-620,-12994
54.520782,12120,-620,-13108
54.536407,12045,-656,-13097
54.552032,11959,-784,-13119
54.567657,11966,-890,-13161
54.583282,11966,-1036,-13028
54.598907,11907,-1158,-13040
54.614532,11911,-1193,-13181
54.630157,11961,-1231,-13170
54.645782,12028,-1279,-13086
54.661407,12109,-1352,-13094
54.677032,12123,-1399,-13172
54.692657,12177,-1379,-13119
54.708282,12277,-1341,-13113
54.723907,12286,-1341,-13165
54.739532,12319,-1297,-13033
54.755157,12411,-1234,-13081
54.770782,12441,-1232,-13170
54.786407,12427,-1136,-13049
54.802032,12405,-1018,-13144
54.817657,12396,-933,-13174
54.833282,12366,-779,-13020
54.848907,12328,-747,-13083
54.864532,12259,-720,-13124
54.880157,12105,-556,-13095
54.895782,11995,-529,-13183
54.911407,11930,-488,-13208
54.927032,11793,-392,-13120
54.942657,11636,-445,-13069
54.958282,11496,-500,-13090
54.973907,11337,-490,-13094
54.989532,11200,-492,-13051
55.005157,11145,-547,-13070
55.020782,11073,-581,-13185
55.036407,11007,-650,-13158
55.052032,11004,-841,-13020
55.067657,10936,-952,-13086
55.083282,10896,-1006,-13129
55.098907,10955,-1090,-13095
55.114532,10982,-1118,-13183
55.130157,11016,-1168,-13115
55.145782,11066,-1282,-13058
55.161407,11070,-1343,-13186
55.177032,11141,-1332,-13160
55.192657,11273,-1304,-13083
55.208282,11329,-1284,-13138
55.223907,11398,-1261,-13117
55.239532,11455,-1220,-13086
55.255157,11427,-1191,-13090
55.270782,11452,-1088,-13094
55.286407,11498,-1034,-13140
55.302032,11455,-968,-13063
55.317657,11414,-804,-13085
55.333282,11427,-779,-13188
55.348907,11357,-702,-13095
55.364532,11275,-572,-13117
55.380157,11187,-545,-13195
55.395782,11013,-443,-13142
55.411407,10957,-347,-13181
55.427032,10868,-370,-13170
55.442657,10695,-415,-13078
55.458282,10595,-415,-13120
55.473907,10452,-392,-13131
55.489532,10314,-420,-13085
55.505157,10254,-468,-13120
55.520782,10191,-459,-13169
55.536407,10104,-570,-13174
55.552032,10047,-740,-13124
55.567657,9993,-809,-13061
55.583282,9973,-922,-13074
55.598907,9982,-977,-13128
55.614532,9988,-988,-13142
55.630157,10041,-1077,-13156
55.645782,10098,-1165,-13131
55.661407,10125,-1224,-13097
55.677032,10134,-1234,-13113
55.692657,10223,-1238,-13070
55.708282,10355,-1257,-13090
55.723907,10380,-1234,-13199
55.739532,10432,-1193,-13124
55.755157,10479,-1122,-13044
55.770782,10464,-1066,-13095
55.786407,10502,-1049,-13044
55.802032,10557,-981,-13069
55.817657,10557,-893,-13185
55.833282,10509,-815,-13174
55.848907,10455,-702,-13136
55.864532,10384,-609,-13099
55.880157,10345,-556,-13101
55.895782,10255,-486,-13113
55.911407,10139,-388,-13135
55.927032,10109,-293,-13244
55.942657,9988,-320,-13172
55.958282,9872,-336,-13122
55.973907,9798,-283,-13172
55.989532,9613,-327,-13044
56.005157,9447,-347,-13060
56.020782,9359,-347,-13128
56.036407,9302,-390,-13092
56.052032,9232,-438,-13145
56.067657,9152,-556,-13128
56.083282,9093,-663,-13069
56.098907,9034,-729,-13053
56.114532,9032,-822,-13072
56.130157,9084,-884,-13190
56.145782,9093,-915,-13231
56.161407,9104,-993,-13108
56.177032,9118,-1091,-13067
56.192657,9115,-1158,-13122
56.208282,9191,-1190,-13101
56.223907,9289,-1184,-13140
56.239532,9356,-1166,-13190
56.255157,9461,-1140,-13129
56.270782,9525,-1131,-13119
56.286407,9486,-1109,-13065
56.302032,9475,-1047,-13008
56.317657,9559,-1058,-13076
56.333282,9614,-997,-13106
56.348907,9634,-893,-13170
56.364532,9638,-843,-13147
56.380157,9568,-718,-13010
56.395782,9513,-675,-13029
56.411407,9470,-615,-13053
56.427032,9422,-465,-13138
56.442657,9418,-422,-13294
56.458282,9341,-393,-13206
56.473907,9188,-318,-13108
56.489532,9059,-295,-13129
56.505157,8934,-275,-13060
56.520782,8838,-227,-13063
56.536407,8768,-199,-13194
56.552032,8652,-218,-13178
56.567657,8547,-272,-13156
56.583282,8465,-308,-13172
56.598907,8332,-358,-13060
56.614532,8216,-440,-13026
56.630157,8206,-506,-13099
56.645782,8241,-567,-13147
56.661407,8197,-631,-13203
56.677032,8147,-711,-13154
56.692657,8152,-811,-13076
56.708282,8111,-877,-13129
56.723907,8124,-938,-13110
56.739532,8206,-984,-13104
56.755157,8229,-1016,-13229
56.770782,8316,-1088,-13186
56.786407,8388,-1116,-13122
56.802032,8361,-1118,-13170
56.817657,8422,-1120,-13140
56.833282,8518,-1100,-13090
56.848907,8597,-1090,-13069
56.864532,8645,-1065,-13185
56.880157,8648,-1043,-13186
56.895782,8675,-916,-13001
56.911407,8647,-827,-13151
56.927032,8634,-836,-13174
56.942657,8682,-677,-12985
56.958282,8693,-602,-13208
56.973907,8643,-608,-13254
56.989532,8599,-495,-13088
57.005157,8545,-443,-13160
57.020782,8393,-374,-13122
57.036407,8324,-256,-13051
57.052032,8293,-229,-13103
57.067657,8215,-222,-13147
57.083282,8149,-179,-13195
57.098907,7986,-175,-13183
57.114532,7843,-195,-13142
57.130157,7758,-177,-13074
57.145782,7631,-184,-13051
57.161407,7572,-225,-13147
57.177032,7522,-249,-13133
57.192657,7418,-306,-13124
57.208282,7352,-365,-13199
57.223907,7299,-409,-13117
57.239532,7229,-517,-13058
57.255157,7199,-622,-13142
57.270782,7217,-690,-13131
57.286407,7236,-766,-13099
57.302032,7229,-825,-13169
57.317657,7238,-863,-13140
57.333282,7272,-906,-13049
57.348907,7292,-950,-13104
57.364532,7358,-1000,-13149
57.380157,7456,-1041,-13144
57.395782,7491,-1034,-13197
57.411407,7570,-1015,-13163
57.427032,7634,-995,-13088
57.442657,7604,-1016,-13086
57.458282,7643,-1031,-13086
57.473907,7675,-988,-13129
57.489532,7691,-934,-13110
57.505157,7770,-811,-13090
57.520782,7800,-724,-13197
57.536407,7802,-708,-13126
57.552032,7793,-659,-13020
57.567657,7750,-659,-13128
57.583282,7716,-611,-13133
57.598907,7686,-456,-13092
57.614532,7666,-352,-13154
57.630157,7588,-284,-13120
57.645782,7481,-259,-13047
57.661407,7386,-263,-13110
57.677032,7299,-179,-13169
57.692657,7250,-72,-13135
57.708282,7188,-100,-13169
57.723907,7075,-156,-13213
57.739532,6909,-158,-13103
57.755157,6781,-165,-13024
57.770782,6695,-129,-13078
57.786407,6618,-136,-13081
57.802032,6611,-211,-13156
57.817657,6567,-259,-13269
57.833282,6492,-306,-13133
57.848907,6424,-388,-13036
57.864532,6299,-447,-13126
57.880157,6279,-502,-13086
57.895782,6376,-620,-13129
57.911407,6390,-670,-13283
57.927032,6376,-711,-13142
57.942657,6347,-829,-13049
57.958282,6308,-881,-13172
57.973907,6388,-870,-13115
57.989532,6465,-904,-13099
58.005157,6515,-959,-13178
58.020782,6613,-958,-13167
58.036407,6631,-991,-13213
58.052032,6634,-1009,-13126
58.067657,6677,-952,-13029
58.083282,6724,-977,-13090
58.098907,6788,-986,-13097
58.114532,6806,-941,-13199
58.130157,6843,-893,-13206
58.145782,6931,-741,-13029
58.161407,6925,-672,-13074
58.177032,6870,-697,-13124
58.192657,6890,-658,-13092
58.208282,6918,-661,-13170
58.223907,6859,-531,-13160
58.239532,6822,-352,-13149
58.255157,6808,-345,-13131
58.270782,6701,-295,-13026
58.286407,6656,-252,-13079
58.302032,6611,-242,-13124
58.317657,6529,-159,-13120
58.333282,6533,-95,-13206
58.348907,6418,-68,-13181
58.364532,6265,-70,-13115
58.380157,6151,-111,-13074
58.395782,6010,-95,-13054
58.411407,5956,-22,-13101
58.427032,5908,-45,-13117
58.442657,5849,-120,-13195
58.458282,5785,-168,-13235
58.473907,5651,-222,-13074
58.489532,5561,-252,-13001
58.505157,5519,-258,-13061
58.520782,5495,-317,-13129
58.536407,5515,-406,-13211
58.552032,5515,-486,-13219
58.567657,5477,-574,-13117
58.583282,5426,-658,-13049
58.598907,5392,-697,-13097
58.614532,5419,-708,-13176
58.630157,5506,-747,-13181
58.645782,5577,-813,-13128
58.661407,5602,-881,-13151
58.677032,5583,-920,-13204
58.692657,5633,-890,-13094
58.708282,5715,-870,-13056
58.723907,5713,-924,-13169
58.739532,5779,-941,-13119
58.755157,5845,-918,-13138
58.770782,5851,-915,-13220
58.786407,5926,-845,-13069
58.802032,5933,-759,-13090
58.817657,5936,-777,-13181
58.833282,6031,-747,-13072
58.848907,6031,-713,-13151
58.864532,6001,-688,-13199
58.880157,6008,-581,-13135
58.895782,5985,-520,-13124
58.911407,5960,-406,-13047
58.927032,5999,-336,-13119
58.942657,5985,-383,-13163
58.958282,5895,-317,-13129
58.973907,5897,-256,-13217
58.989532,5788,-217,-13133
59.005157,5651,-90,-13044
59.020782,5636,-27,-13099
59.036407,5538,-49,-13078
59.052032,5490,-29,-13126
59.067657,5469,-9,-13201
59.083282,5360,-17,-13178
59.098907,5256,21,-13151
59.114532,5129,48,-13101
59.130157,5044,7,-13090
59.145782,4976,-56,-13108
59.161407,4888,-75,-13124
59.177032,4858,-65,-13183
59.192657,4815,-77,-13183
59.208282,4740,-150,-13128
59.223907,4674,-217,-13101
59.239532,4626,-268,-13070
59.255157,4619,-383,-13079
59.270782,4622,-445,-13169
59.286407,4599,-454,-13197
59.302032,4570,-488,-13151
59.317657,4578,-554,-13128
59.333282,4601,-654,-13120
59.348907,4572,-709,-13117
59.364532,4586,-733,-13142
59.380157,4651,-756,-13172
59.395782,4704,-759,-13160
59.411407,4767,-818,-13129
59.427032,4776,-881,-13138
59.442657,4788,-870,-13160
59.458282,4860,-840,-13111
59.473907,4901,-833,-13108
59.489532,4949,-850,-13170
59.505157,5004,-834,-13147
59.520782,5001,-845,-13163
59.536407,5020,-856,-13151
59.552032,5069,-745,-13072
59.567657,5086,-697,-13120
59.583282,5138,-695,-13138
59.598907,5183,-631,-13183
59.614532,5186,-634,-13228
59.630157,5170,-558,-13079
59.645782,5129,-450,-13061
59.661407,5106,-420,-13090
59.677032,5097,-306,-13074
59.692657,5131,-250,-13251
59.708282,5120,-277,-13254
59.723907,5015,-213,-13094
59.739532,4965,-147,-13160
59.755157,4903,-113,-13131
59.770782,4795,-15,-13029
59.786407,4769,49,-13153
59.802032,4733,17,-13194
59.817657,4667,1,-13179
59.833282,4615,24,-13224
59.848907,4494,83,-13147
59.864532,4388,135,-13094
59.880157,4338,101,-13115
59.895782,4254,48,-13104
59.911407,4194,44,-13138
59.927032,4129,53,-13186
59.942657,4033,10,-13170
59.958282,3976,-9,-13136
59.973907,3953,-4,-13108
59.989532,3917,-113,-13140
60.005157,3838,-195,-13158
60.020782,3792,-234,-13088
60.036407,3772,-283,-13133
60.052032,3733,-250,-13176
60.067657,3754,-318,-13101
60.083282,3733,-425,-13185
60.098907,3703,-459,-13204
60.114532,3762,-561,-13069
60.130157,3756,-613,-13192
60.145782,3742,-579,-13236
60.161407,3790,-636,-13044
60.177032,3776,-702,-13108
60.192657,3794,-729,-13211
60.208282,3890,-791,-13135
60.223907,3910,-818,-13172
60.239532,3942,-804,-13192
60.255157,4015,-795,-13126
60.270782,4028,-797,-13133
60.286407,4058,-800,-13115
60.302032,4072,-786,-13145
60.317657,4099,-811,-13188
60.333282,4254,-791,-13115
60.348907,4278,-731,-13167
60.364532,4204,-731,-13213
60.380157,4258,-675,-13104
60.395782,4263,-631,-13103
60.411407,4254,-597,-13129
60.427032,4322,-534,-13138
60.442657,4372,-531,-13195
60.458282,4354,-463,-13167
60.473907,4287,-388,-13090
60.489532,4235,-359,-13056
60.505157,4240,-297,-13111
60.520782,4274,-247,-13163
60.536407,4260,-190,-13170
60.552032,4247,-154,-13233
60.567657,4170,-134,-13172
60.583282,4058,-63,-13081
60.598907,4047,-11,-13131
60.614532,3949,41,-13081
60.630157,3899,114,-13120
60.645782,3951,128,-13242
60.661407,3835,76,-13165
60.677032,3762,76,-13176
60.692657,3697,148,-13190
60.708282,3551,155,-13072
60.723907,3517,157,-13124
60.739532,3481,160,-13163
60.755157,3408,119,-13136
60.770782,3367,110,-13211
60.786407,3299,114,-13174
60.802032,3217,105,-13099
60.817657,3158,71,-13149
60.833282,3112,-4,-13133
60.848907,3062,-65,-13115
60.864532,3026,-93,-13211
60.880157,2978,-124,-13161
60.895782,2953,-161,-13099
60.911407,2935,-188,-13174
60.927032,2874,-227,-13103
60.942657,2880,-343,-13097
60.958282,2949,-408,-13244
60.973907,2928,-379,-13181
60.989532,2865,-436,-13131
61.005157,2878,-506,-13174
61.020782,2899,-520,-13095
61.036407,2883,-565,-13110
61.052032,2922,-606,-13170
61.067657,2997,-633,-13154
61.083282,3015,-674,-13156
61.098907,3049,-693,-13122
61.114532,3062,-690,-13153
61.130157,3053,-711,-13165
61.145782,3112,-733,-13079
61.161407,3135,-758,-13151
61.177032,3176,-765,-13192
61.192657,3271,-731,-13131
61.208282,3260,-754,-13183
61.223907,3303,-729,-13124
61.239532,3362,-674,-13104
61.255157,3333,-722,-13176
61.270782,3392,-699,-13092
61.286407,3421,-658,-13151
61.302032,3397,-609,-13149
61.317657,3438,-475,-13051
61.333282,3510,-479,-13222
61.348907,3513,-495,-13179
61.364532,3465,-442,-13088
61.380157,3471,-515,-13224
61.395782,3454,-447,-13074
61.411407,3435,-243,-13028
61.427032,3472,-211,-13210
61.442657,3481,-177,-13163
61.458282,3483,-190,-13153
61.473907,3426,-249,-13192
61.489532,3347,-122,-13140
61.505157,3338,-6,-13158
61.520782,3279,21,-13140
61.536407,3222,58,-13104
61.552032,3163,51,-13144
61.567657,3108,42,-13153
61.583282,3117,74,-13147
61.598907,3072,153,-13176
61.614532,3040,221,-13215
61.630157,2974,174,-13151
61.645782,2824,123,-13117
61.661407,2774,162,-13140
61.677032,2721,233,-13065
61.692657,2685,267,-13153
61.708282,2706,205,-13276
61.723907,2610,151,-13174
61.739532,2508,153,-13156
61.755157,2435,135,-13136
61.770782,2364,148,-13020
61.786407,2344,126,-13092
61.802032,2331,58,-13228
61.817657,2314,60,-13215
61.833282,2269,28,-13165
61.848907,2185,-15,-13124
61.864532,2099,-13,-13051
61.880157,2067,-81,-13079
61.895782,2133,-147,-13211
61.911407,2174,-179,-13217
61.927032,2105,-209,-13140
61.942657,2049,-224,-13126
61.958282,2035,-281,-13095
61.973907,2012,-336,-13106
61.989532,2060,-331,-13165
62.005157,2135,-408,-13154
62.020782,2087,-479,-13172
62.036407,2083,-474,-13126
62.052032,2101,-529,-13131
62.067657,2039,-534,-13194
62.083282,2128,-549,-13069
62.098907,2185,-604,-13133
62.114532,2158,-620,-13238
62.130157,2278,-683,-13094
62.145782,2272,-693,-13185
62.161407,2224,-638,-13220
62.177032,2317,-668,-13036
62.192657,2290,-718,-13170
62.208282,2322,-711,-13208
62.223907,2426,-738,-13088
62.239532,2405,-734,-13231
62.255157,2476,-641,-13181
62.270782,2521,-633,-13090
62.286407,2480,-674,-13185
62.302032,2555,-634,-13126
62.317657,2569,-624,-13163
62.333282,2565,-593,-13161
62.348907,2624,-511,-13085
62.364532,2615,-540,-13203
62.380157,2653,-506,-13133
62.395782,2680,-458,-13095
62.411407,2631,-520,-13210
62.427032,2628,-417,-13122
62.442657,2665,-347,-13140
62.458282,2672,-349,-13176
62.473907,2651,-217,-13103
62.489532,2646,-234,-13133
62.505157,2631,-243,-13120
62.520782,2628,-156,-13161
62.536407,2617,-184,-13222
62.552032,2578,-72,-13138
62.567657,2594,28,-13144
62.583282,2540,-79,-13144
62.598907,2456,-49,-13074
62.614532,2460,96,-13149
62.630157,2433,89,-13210
62.645782,2401,92,-13147
62.661407,2383,174,-13135
62.677032,2324,108,-13154
62.692657,2256,121,-13085
62.708282,2246,280,-13140
62.723907,2199,232,-13203
62.739532,2071,171,-13086
62.755157,2112,299,-13194
62.770782,2101,280,-13260
62.786407,1933,185,-13060
62.802032,1956,321,-13120
62.817657,1885,305,-13194
62.833282,1758,146,-13081
62.848907,1819,301,-13174
62.864532,1758,321,-13228
62.880157,1656,117,-13122
62.895782,1667,269,-13142
62.911407,1608,333,-13181
62.927032,1510,76,-13092
62.942657,1505,103,-13086
62.958282,1501,251,-13211
62.973907,1453,85,-13142
62.989532,1424,12,-13074
63.005157,1390,216,-13210
63.020782,1331,62,-13126
63.036407,1292,-170,-13081
63.052032,1273,32,-13211
63.067657,1260,-17,-13117
63.083282,1248,-245,-13149
63.098907,1224,-74,-13242
63.114532,1246,-34,-13076
63.130157,1235,-320,-13140
63.145782,1189,-288,-13213
63.161407,1224,-143,-13049
63.177032,1207,-322,-13201
63.192657,1178,-415,-13251
63.208282,1239,-331,-13022
63.223907,1198,-350,-13144
63.239532,1182,-497,-13208
63.255157,1240,-509,-13069
63.270782,1235,-388,-13188
63.286407,1271,-495,-13236
63.302032,1285,-611,-13081
63.317657,1255,-500,-13104
63.333282,1315,-493,-13199
63.348907,1340,-633,-13131
63.364532,1349,-604,-13079
63.380157,1381,-529,-13204
63.395782,1374,-640,-13224
63.411407,1451,-683,-13085
63.427032,1415,-584,-13169
63.442657,1392,-595,-13188
63.458282,1539,-674,-13061
63.473907,1489,-672,-13208
63.489532,1512,-608,-13208
63.505157,1637,-590,-13083
63.520782,1578,-641,-13185
63.536407,1614,-600,-13174
63.552032,1624,-577,-13110
63.567657,1589,-672,-13110
63.583282,1671,-634,-13145
63.598907,1683,-547,-13199
63.614532,1737,-497,-13101
63.630157,1785,-474,-13156
63.645782,1730,-520,-13228
63.661407,1753,-442,-13035
63.677032,1735,-442,-13140
63.692657,1724,-549,-13231
63.708282,1799,-400,-13067
63.723907,1803,-334,-13222
63.739532,1814,-392,-13245
63.755157,1817,-302,-13047
63.770782,1760,-288,-13126
63.786407,1765,-279,-13156
63.802032,1815,-234,-13113
63.817657,1814,-238,-13210
63.833282,1799,-197,-13226
63.848907,1796,-143,-13136
63.864532,1756,-142,-13097
63.880157,1726,-142,-13113
63.895782,1726,-68,-13145
63.911407,1730,7,-13169
63.927032,1694,14,-13149
63.942657,1683,-33,-13165
63.958282,1703,-15,-13156
63.973907,1637,108,-13113
63.989532,1606,114,-13144
64.005157,1590,87,-13135
64.020782,1571,176,-13151
64.036407,1603,182,-13210
64.052032,1512,153,-13136
64.067657,1480,189,-13136
64.083282,1499,237,-13174
64.098907,1392,282,-13120
64.114532,1412,249,-13163
64.130157,1374,219,-13153
64.145782,1274,296,-13124
64.161407,1331,335,-13194
64.177032,1249,328,-13135
64.192657,1185,316,-13142
64.208282,1215,298,-13203
64.223907,1117,314,-13117
64.239532,1083,341,-13128
64.255157,1076,333,-13167
64.270782,1030,312,-13145
64.286407,1015,332,-13178
64.302032,962,326,-13154
64.317657,946,308,-13136
64.333282,899,314,-13138
64.348907,826,319,-13110
64.364532,824,326,-13133
64.380157,812,276,-13188
64.395782,796,205,-13188
64.411407,742,233,-13126
64.427032,687,282,-13138
64.442657,682,264,-13161
64.458282,637,180,-13144
64.473907,615,139,-13163
64.489532,614,187,-13167
64.505157,567,191,-13140
64.520782,537,171,-13113
64.536407,537,114,-13149
64.552032,521,92,-13169
64.567657,510,87,-13153
64.583282,510,39,-13199
64.598907,442,33,-13147
64.614532,398,-24,-13094
64.630157,423,-4,-13197
64.645782,430,23,-13151
64.661407,416,-81,-13094
64.677032,391,-93,-13219
64.692657,416,-120,-13119
64.708282,416,-183,-13081
64.723907,355,-125,-13242
64.739532,380,-138,-13097
64.755157,392,-242,-13097
64.770782,351,-240,-13258
64.786407,376,-218,-13110
64.802032,366,-267,-13113
64.817657,366,-272,-13206
64.833282,405,-311,-13154
64.848907,358,-349,-13181
64.864532,383,-309,-13133
64.880157,421,-342,-13122
64.895782,382,-377,-13192
64.911407,437,-406,-13110
64.927032,453,-456,-13151
64.942657,403,-413,-13235
64.958282,482,-447,-13060
64.973907,476,-500,-13135
64.989532,399,-436,-13288
65.005157,510,-509,-13040
65.020782,503,-543,-13092
65.036407,426,-443,-13292
65.052032,541,-497,-13047
65.067657,560,-543,-13072
65.083282,514,-536,-13299
65.098907,558,-574,-13128
65.114532,598,-533,-13049
65.130157,585,-533,-13226
65.145782,580,-568,-13176
65.161407,664,-540,-13031
65.177032,657,-559,-13201
65.192657,607,-559,-13278
65.208282,719,-547,-13051
65.223907,707,-600,-13178
65.239532,640,-574,-13285
65.255157,771,-534,-13024
65.270782,735,-595,-13144
65.286407,660,-575,-13274
65.302032,801,-508,-13038
65.317657,796,-561,-13163
65.333282,749,-570,-13269
65.348907,821,-524,-13067
65.364532,783,-581,-13169
65.380157,805,-531,-13213
65.395782,862,-467,-13081
65.411407,808,-558,-13170
65.427032,849,-495,-13186
65.442657,878,-436,-13115
65.458282,864,-547,-13135
65.473907,905,-475,-13183
65.489532,896,-431,-13174
65.505157,912,-486,-13070
65.520782,926,-392,-13165
65.536407,901,-397,-13203
65.552032,932,-443,-13051
65.567657,955,-393,-13220
65.583282,958,-374,-13213
65.598907,942,-350,-13020
65.614532,935,-352,-13206
65.630157,976,-320,-13163
65.645782,980,-309,-13065
65.661407,965,-386,-13258
65.677032,983,-279,-13158
65.692657,973,-229,-13081
65.708282,957,-350,-13236
65.723907,983,-249,-13145
65.739532,989,-154,-13092
65.755157,969,-263,-13229
65.770782,973,-247,-13151
65.786407,964,-108,-13076
65.802032,948,-163,-13201
65.817657,960,-215,-13149
65.833282,974,-67,-13092
65.848907,971,-63,-13215
65.864532,951,-170,-13169
65.880157,942,-106,-13111
65.895782,951,-25,-13203
65.911407,926,-61,-13172
65.927032,914,-54,-13101
65.942657,946,33,-13167
65.958282,935,10,-13206
65.973907,883,-70,-13106
65.989532,882,1,-13126
66.005157,924,82,-13244
66.020782,887,82,-13129
66.036407,842,37,-13101
66.052032,876,42,-13224
66.067657,842,155,-13126
66.083282,833,128,-13128
66.098907,851,42,-13228
66.114532,787,149,-13111
66.130157,799,230,-13135
66.145782,808,158,-13201
66.161407,742,137,-13103
66.177032,783,210,-13144
66.192657,794,258,-13188
66.208282,737,219,-13140
66.223907,737,178,-13147
66.239532,701,223,-13147
66.255157,699,291,-13163
66.270782,703,289,-13151
66.286407,649,208,-13126
66.302032,664,217,-13169
66.317657,671,324,-13158
66.333282,646,319,-13158
66.348907,633,258,-13203
66.364532,578,278,-13151
66.380157,562,324,-13131
66.395782,585,339,-13169
66.411407,533,337,-13122
66.427032,516,337,-13124
66.442657,542,326,-13172
66.458282,526,358,-13154
66.473907,526,398,-13174
66.489532,505,351,-13161
66.505157,466,316,-13135
66.520782,451,312,-13165
66.536407,417,357,-13124
66.552032,424,439,-13136
66.567657,458,408,-13186
66.583282,399,341,-13149
66.598907,355,371,-13170
66.614532,383,426,-13172
66.630157,341,407,-13108
66.645782,342,382,-13138
66.661407,348,391,-13149
66.677032,282,357,-13126
66.692657,307,366,-13163
66.708282,308,412,-13158
66.723907,264,419,-13165
66.739532,269,403,-13158
66.755157,228,360,-13115
66.770782,207,346,-13165
66.786407,217,396,-13149
66.802032,219,446,-13138
66.817657,232,405,-13210
66.833282,187,351,-13165
66.848907,155,387,-13133
66.864532,135,367,-13120
66.880157,103,324,-13094
66.895782,141,396,-13178
66.911407,144,424,-13208
66.927032,105,392,-13142
66.942657,116,410,-13163
66.958282,94,394,-13142
66.973907,33,342,-13078
66.989532,51,348,-13174
67.005157,85,398,-13211
67.020782,30,376,-13122
67.036407,30,378,-13186
67.052032,49,428,-13197
67.067657,-22,339,-13063
67.083282,-11,274,-13161
67.098907,14,316,-13217
67.114532,-36,323,-13083
67.130157,-15,374,-13160
67.145782,-4,387,-13201
67.161407,-40,341,-13101
67.177032,-36,367,-13190
67.192657,-47,344,-13211
67.208282,-68,316,-13070
67.223907,-74,330,-13126
67.239532,-59,314,-13231
67.255157,-65,348,-13145
67.270782,-92,376,-13169
67.286407,-97,328,-13222
67.302032,-115,280,-13063
67.317657,-122,316,-13083
67.333282,-93,371,-13220
67.348907,-100,317,-13136
67.364532,-104,273,-13169
67.380157,-104,323,-13235
67.395782,-152,287,-13085
67.411407,-159,260,-13108
67.427032,-165,324,-13197
67.442657,-161,251,-13138
67.458282,-104,198,-13161
67.473907,-131,278,-13204
67.489532,-181,337,-13170
67.505157,-188,330,-13120
67.520782,-186,271,-13129
67.536407,-165,248,-13174
67.552032,-183,239,-13140
67.567657,-177,233,-13165
67.583282,-156,271,-13194
67.598907,-202,260,-13117
67.614532,-217,239,-13154
67.630157,-209,262,-13170
67.645782,-215,262,-13113
67.661407,-215,258,-13156
67.677032,-231,267,-13135
67.692657,-213,264,-13104
67.708282,-195,262,-13206
67.723907,-213,271,-13229
67.739532,-224,258,-13126
67.755157,-242,242,-13119
67.770782,-254,273,-13149
67.786407,-236,271,-13090
67.802032,-204,255,-13188
67.817657,-197,285,-13229
67.833282,-222,230,-13108
67.848907,-224,212,-13192
67.864532,-250,237,-13138
67.880157,-277,176,-13051
67.895782,-247,203,-13213
67.911407,-254,199,-13176
67.927032,-261,189,-13135
67.942657,-242,257,-13201
67.958282,-245,223,-13129
67.973907,-252,207,-13131
67.989532,-259,217,-13158
68.005157,-250,173,-13174
68.020782,-245,203,-13185
68.036407,-265,203,-13115
68.052032,-250,201,-13183
68.067657,-240,244,-13170
68.083282,-267,157,-13111
68.098907,-267,171,-13219
68.114532,-256,212,-13138
68.130157,-250,183,-13113
68.145782,-258,239,-13194
68.161407,-256,235,-13126
68.177032,-240,228,-13160
68.192657,-238,233,-13170
68.208282,-233,201,-13140
68.223907,-249,232,-13158
68.239532,-279,248,-13108
68.255157,-242,274,-13154
68.270782,-204,314,-13195
68.286407,-233,246,-13147
68.302032,-242,255,-13158
68.317657,-245,291,-13131
68.333282,-240,262,-13142
68.348907,-217,299,-13172
68.364532,-225,312,-13136
68.380157,-225,316,-13163
68.395782,-227,323,-13181
68.411407,-249,307,-13122
68.427032,-247,314,-13115
68.442657,-220,323,-13156
68.458282,-206,321,-13126
68.473907,-190,339,-13185
68.489532,-208,394,-13229
68.505157,-249,383,-13054
68.520782,-215,351,-13135
68.536407,-188,387,-13240
68.552032,-231,335,-13058
68.567657,-217,335,-13179
68.583282,-197,403,-13238
68.598907,-227,342,-13063
68.614532,-213,376,-13203
68.630157,-209,401,-13201
68.645782,-220,321,-13067
68.661407,-195,382,-13190
68.677032,-209,410,-13160
68.692657,-208,374,-13099
68.708282,-192,401,-13194
68.723907,-204,405,-13178
68.739532,-199,403,-13126
68.755157,-227,376,-13126
68.770782,-252,371,-13149
68.786407,-231,398,-13135
68.802032,-224,392,-13113
68.817657,-211,407,-13192
68.833282,-195,401,-13181
68.848907,-217,376,-13111
68.864532,-218,385,-13167
68.880157,-193,378,-13151
68.895782,-204,344,-13113
68.911407,-192,355,-13210
68.927032,-193,367,-13163
68.942657,-227,330,-13122
68.958282,-217,351,-13219
68.973907,-233,355,-13117
68.989532,-242,305,-13104
69.005157,-206,349,-13215
69.020782,-215,346,-13110
69.036407,-217,324,-13153
69.052032,-206,385,-13203
69.067657,-233,314,-13078
69.083282,-220,273,-13186
69.098907,-215,328,-13179
69.114532,-240,264,-13065
69.130157,-222,283,-13204
69.145782,-233,324,-13165
69.161407,-258,271,-13081
69.177032,-240,289,-13181
69.192657,-231,278,-13170
69.208282,-225,249,-13135
69.223907,-231,264,-13142
69.239532,-238,267,-13163
69.255157,-234,287,-13170
69.270782,-240,285,-13128
69.286407,-234,269,-13174
69.302032,-240,274,-13197
69.317657,-247,248,-13085
69.333282,-234,237,-13126
69.348907,-224,283,-13233
69.364532,-231,266,-13106
69.380157,-243,221,-13108
69.395782,-236,287,-13269
69.411407,-242,285,-13120
69.427032,-243,216,-13070
69.442657,-234,278,-13233
69.458282,-247,271,-13140
69.473907,-231,232,-13113
69.489532,-215,294,-13222
69.505157,-243,282,-13124
69.520782,-256,253,-13095
69.536407,-249,289,-13194
69.552032,-238,298,-13149
69.567657,-211,296,-13108
69.583282,-206,307,-13204
69.598907,-225,319,-13199
69.614532,-234,316,-13083
69.630157,-227,312,-13183
69.645782,-234,332,-13206
69.661407,-249,276,-13033
69.677032,-225,278,-13192
69.692657,-208,357,-13242
69.708282,-211,294,-13051
69.723907,-211,303,-13192
69.739532,-218,367,-13208
69.755157,-217,310,-13056
69.770782,-208,330,-13185
69.786407,-209,376,-13190
69.802032,-215,342,-13088
69.817657,-215,366,-13188
69.833282,-218,355,-13213
69.848907,-229,314,-13128
69.864532,-233,328,-13156
69.880157,-220,353,-13178
69.895782,-227,367,-13111
69.911407,-234,366,-13161
69.927032,-220,376,-13194
69.942657,-211,366,-13126
69.958282,-200,349,-13186
69.973907,-220,362,-13192
69.989532,-238,355,-13101
70.005157,-208,358,-13151
70.020782,-202,374,-13194
70.036407,-215,380,-13124
70.052032,-229,366,-13106
70.067657,-220,346,-13197
70.083282,-199,341,-13156
70.098907,-229,319,-13085
70.114532,-238,358,-13194
70.130157,-234,389,-13156
70.145782,-234,335,-13099
70.161407,-225,342,-13195
70.177032,-243,348,-13149
70.192657,-218,323,-13140
70.208282,-209,342,-13179
70.223907,-234,324,-13144
70.239532,-218,321,-13192
70.255157,-225,323,-13153
70.270782,-233,305,-13122
70.286407,-213,332,-13185
70.302032,-231,328,-13128
70.317657,-233,312,-13124
70.333282,-227,305,-13195
70.348907,-245,299,-13169
70.364532,-234,307,-13135
70.380157,-224,294,-13169
70.395782,-243,298,-13169
70.411407,-252,292,-13135
70.427032,-242,278,-13149
70.442657,-227,276,-13167
70.458282,-224,287,-13147
70.473907,-238,291,-13131
70.489532,-236,291,-13167
70.505157,-249,305,-13153
70.520782,-254,296,-13115
