;Title, http://www.gcdataconcepts.com, x2-2,Kionix KXRB5-2050
;Version, 1102, Build date, Oct  6 2015,  SN:CCDC10023F56AE8
;Start_time, 2007-02-12, 01:31:47.715
;Temperature, -999.00, deg C,  Vbat, 4162, mv
;Gain, high
;SampleRate, 64,Hz
;Deadband, 0, counts
;DeadbandTimeout, 0,sec
;Headers, time,Ax,Ay,Az
0.421814,-1420,-100,-12803
0.437439,-1349,-475,-12078
0.453064,-1465,-158,-11105
0.468689,-1491,487,-11265
0.484314,-1561,391,-11490
0.499939,-1666,155,-10669
0.515564,-1766,528,-10126
0.546814,-1427,112,-9758
0.562439,-790,-542,-9478
0.578064,-584,-15,-10974
0.593689,-711,-154,-12970
0.609314,-950,-970,-13644
0.624939,-679,-772,-14019
0.640564,73,-781,-14747
0.656189,-67,-1474,-15202
0.671814,-763,-1545,-15118
0.687439,-911,-1327,-14974
0.703064,-733,-1077,-14638
0.718689,-486,-567,-14083
0.734314,-243,-515,-14111
0.749939,-233,-740,-14747
0.765564,-370,-831,-14929
0.781189,-543,-1104,-14277
0.796814,-595,-761,-13915
0.812439,-261,-59,-14108
0.828064,-111,-167,-13858
0.843689,-442,-349,-13290
0.859314,-515,-295,-13094
0.874939,-340,-392,-13174
0.890564,-309,-500,-13031
0.906189,-293,-290,-13028
0.921814,-331,-86,-13538
0.937439,-434,-493,-13719
0.953064,-458,-838,-13367
0.968689,-383,-774,-13069
0.984314,-306,-538,-13019
0.999939,-272,-322,-13003
1.015564,-292,-500,-13036
1.031189,-425,-824,-13124
1.046814,-508,-734,-13156
1.062439,-338,-524,-13347
1.078064,-161,-761,-13465
1.093689,-238,-793,-13210
1.109314,-377,-531,-12969
1.124939,-411,-659,-12949
1.140564,-347,-845,-13117
1.156189,-279,-670,-13294
1.171814,-324,-225,-13158
1.187439,-409,-95,-13144
1.203064,-450,-347,-13247
1.218689,-420,-340,-13060
1.234314,-340,-324,-12976
1.249939,-293,-500,-13054
1.265564,-245,-509,-13133
1.281189,-234,-638,-13211
1.296814,-375,-838,-13061
1.312439,-459,-572,-12872
1.328064,-327,-511,-12737
1.343689,-172,-863,-12645
1.359314,-249,-208,-13219
1.374939,-384,-752,-12656
1.390564,-317,-2243,-11294
1.406189,-634,-470,-12504
1.421814,-572,424,-13686
1.437439,178,-820,-13167
1.453064,-90,-250,-13113
1.468689,-467,226,-13231
1.484314,-170,-72,-13011
1.499939,-142,-17,-12951
1.515564,-175,-131,-13254
1.531189,-100,-104,-13351
1.546814,-97,191,-13147
1.562439,-43,273,-13135
1.578064,19,244,-13204
1.593689,-68,196,-13186
1.609314,-163,108,-13151
1.624939,-90,142,-13161
1.640564,-50,203,-13108
1.656189,-268,-56,-13053
1.671814,-145,191,-13161
1.687439,-50,251,-13226
1.703064,-708,-731,-13167
1.718689,-184,264,-12981
1.734314,578,1240,-12983
1.749939,-74,103,-13197
1.765564,-208,24,-13210
1.781189,-31,269,-13169
1.796814,-154,87,-13174
1.812439,-125,176,-13178
1.828064,-99,183,-13176
1.843689,-99,178,-13165
1.859314,-113,191,-13170
1.874939,-117,192,-13163
1.890564,-102,183,-13158
1.906189,-108,180,-13151
1.921814,-125,194,-13142
1.937439,-118,176,-13179
1.953064,-109,155,-13190
1.968689,-118,173,-13153
1.984314,-120,189,-13161
1.999939,-97,174,-13181
2.015564,-93,171,-13161
2.031189,-118,180,-13153
2.046814,-125,182,-13161
2.062439,-120,176,-13158
2.078064,-113,158,-13158
2.093689,-97,162,-13145
2.109314,-99,180,-13153
2.124939,-113,173,-13163
2.140564,-117,160,-13145
2.156189,-100,232,-13149
2.171814,-124,114,-13167
2.187439,-93,196,-13169
2.203064,-50,317,-13174
2.218689,-218,-340,-13154
2.234314,114,1587,-13111
2.249939,562,3769,-13186
2.265564,149,1005,-13274
2.281189,-186,-909,-13242
2.296814,-417,-1227,-13217
2.312439,-675,-2182,-13185
2.328064,-420,-643,-13149
2.343689,92,789,-13172
2.359314,508,441,-13153
2.374939,516,201,-13151
2.390564,-309,351,-13233
2.406189,-999,194,-13165
2.421814,-367,-243,-13097
2.437439,-17,24,-13186
2.453064,-208,251,-13201
2.468689,-56,110,-13190
2.484314,-86,207,-13156
2.499939,-159,157,-13158
2.515564,-61,337,-13235
2.531189,-150,626,-13169
2.546814,-261,171,-13138
2.562439,524,-95,-13158
2.578064,503,33,-13092
2.593689,-777,99,-13078
2.609314,-500,214,-13126
2.624939,76,180,-13163
2.640564,-175,153,-13156
2.656189,-102,166,-13151
2.671814,-77,169,-13163
2.687439,-133,185,-13154
2.703064,-84,166,-13142
2.718689,-92,180,-13154
2.734314,-120,191,-13156
2.749939,-118,164,-13145
2.765564,-113,158,-13142
2.781189,-102,169,-13145
2.796814,-100,171,-13156
2.812439,-117,164,-13160
2.828064,-113,157,-13163
2.843689,-108,173,-13167
2.859314,-113,174,-13163
2.874939,-102,158,-13156
2.890564,-104,167,-13153
2.906189,-117,180,-13151
2.921814,-118,189,-13151
2.937439,-100,178,-13156
2.953064,-93,157,-13165
2.968689,-117,164,-13169
2.984314,-118,149,-13174
2.999939,-108,153,-13169
3.015564,-104,187,-13153
3.031189,-109,183,-13156
3.046814,-109,171,-13144
3.062439,-95,169,-13140
3.078064,-99,160,-13156
3.093689,-106,162,-13153
3.109314,-102,180,-13151
3.124939,-109,192,-13154
3.140564,-117,187,-13165
3.156189,-111,178,-13165
3.171814,-111,173,-13145
3.187439,-117,166,-13153
3.203064,-97,174,-13170
3.218689,-88,187,-13167
3.234314,-111,173,-13165
3.249939,-109,167,-13158
3.265564,-100,171,-13151
3.281189,-108,171,-13161
3.296814,-100,180,-13161
3.312439,-93,178,-13163
3.328064,-100,166,-13160
3.343689,-99,174,-13144
3.359314,-100,180,-13154
3.374939,-111,171,-13165
3.390564,-106,182,-13167
3.406189,-109,178,-13165
3.421814,-113,169,-13154
3.437439,-97,171,-13165
3.453064,-93,171,-13172
3.468689,-108,189,-13149
3.484314,-106,176,-13147
3.499939,-115,166,-13163
3.515564,-127,182,-13158
3.531189,-106,180,-13151
3.546814,-100,185,-13156
3.562439,-106,166,-13167
3.578064,-93,149,-13174
3.593689,-88,182,-13172
3.609314,-99,199,-13169
3.624939,-106,191,-13158
3.640564,-109,173,-13151
3.656189,-92,169,-13158
3.671814,-106,192,-13158
3.687439,-111,166,-13176
3.703064,-63,149,-13185
3.718689,-161,212,-13156
3.734314,-58,158,-13179
3.749939,-58,203,-13133
3.765564,-827,307,-13053
3.781189,-843,92,-13129
3.796814,410,28,-13149
3.812439,708,121,-13126
3.828064,5,182,-13165
3.843689,-234,108,-13163
3.859314,-397,-102,-13169
3.874939,-259,176,-13190
3.890564,66,389,-13179
3.906189,42,214,-13172
3.921814,60,308,-13165
3.937439,-59,321,-13167
3.953064,-158,192,-13179
3.968689,114,378,-13172
3.984314,19,291,-13156
3.999939,-336,28,-13149
4.015564,-202,158,-13151
4.031189,-74,235,-13165
4.046814,-133,192,-13165
4.062439,-104,203,-13160
4.078064,-88,201,-13161
4.093689,-115,210,-13153
4.109314,-120,201,-13144
4.124939,-95,217,-13156
4.140564,-99,214,-13158
4.156189,-124,162,-13156
4.171814,-70,319,-13167
4.187439,-68,307,-13174
4.203064,-152,51,-13185
4.218689,-131,124,-13172
4.234314,-113,226,-13169
4.249939,-147,192,-13183
4.265564,-115,217,-13172
4.281189,-88,217,-13165
4.296814,-111,199,-13160
4.312439,-65,224,-13161
4.328064,-42,223,-13186
4.343689,-109,189,-13165
4.359314,-122,194,-13145
4.374939,-106,187,-13167
4.390564,-99,182,-13174
4.406189,-95,203,-13170
4.421814,-104,198,-13165
4.437439,-97,187,-13165
4.453064,-95,185,-13165
4.468689,-120,191,-13165
4.484314,-122,210,-13169
4.499939,-115,208,-13167
4.515564,-118,192,-13160
4.531189,-113,192,-13151
4.546814,-120,208,-13158
4.562439,-111,207,-13179
4.578064,-90,183,-13174
4.593689,-102,194,-13151
4.609314,-109,207,-13153
4.624939,-99,198,-13158
4.640564,-109,210,-13120
4.656189,-147,219,-13120
4.671814,-150,203,-13161
4.687439,-99,191,-13167
4.703064,-74,199,-13165
4.718689,-106,216,-13147
4.734314,-120,205,-13158
4.749939,-113,207,-13172
4.765564,-109,212,-13154
4.781189,-99,199,-13167
4.796814,-102,217,-13163
4.812439,-109,221,-13158
4.828064,-104,199,-13161
4.843689,-104,224,-13142
4.859314,-99,237,-13153
4.874939,-106,205,-13147
4.890564,-115,223,-13156
4.906189,-99,248,-13174
4.921814,-120,171,-13095
4.937439,-127,142,-13101
4.953064,-75,208,-13172
4.968689,-65,235,-13163
4.984314,-88,232,-13154
4.999939,-92,242,-13144
5.015564,-92,258,-13154
5.031189,-92,235,-13179
5.046814,-106,219,-13163
5.062439,-106,223,-13169
5.078064,-47,203,-13194
5.093689,-168,292,-13138
5.109314,-43,183,-13174
5.124939,157,42,-13324
5.140564,24,146,-13245
5.156189,419,-50,-13133
5.171936,292,187,-13156
5.187561,-433,487,-13149
5.203186,-558,157,-13160
5.218811,-306,155,-13161
5.234436,-63,242,-13142
5.250061,-117,180,-13154
5.265686,-109,201,-13188
5.281311,-68,199,-13188
5.296936,-122,205,-13151
5.312561,-93,183,-13170
5.328186,-136,196,-13183
5.343811,-188,257,-13142
5.359436,-102,189,-13153
5.375061,-43,137,-13160
5.390686,-43,142,-13078
5.406311,-134,226,-13258
5.421936,-104,360,-13244
5.437561,78,239,-12897
5.453186,-20,192,-13165
5.468811,-145,219,-13317
5.484436,-125,157,-13111
5.500061,-115,178,-13145
5.515686,-88,182,-13163
5.531311,-100,167,-13158
5.546936,-113,171,-13158
5.562561,-100,162,-13156
5.578186,-86,153,-13167
5.593811,-93,180,-13167
5.609436,-118,191,-13161
5.625061,-124,167,-13145
5.640686,-118,174,-13138
5.656311,-113,189,-13165
5.671936,-108,180,-13172
5.687561,-93,164,-13149
5.703186,-95,167,-13154
5.718811,-117,176,-13158
5.734436,-111,173,-13144
5.750061,-102,185,-13154
5.765686,-104,180,-13165
5.781311,-92,166,-13156
5.796936,-106,187,-13158
5.812561,-124,183,-13165
5.828186,-106,164,-13167
5.843811,-100,171,-13172
5.859436,-111,174,-13165
5.875061,-97,178,-13151
5.890686,-86,167,-13160
5.906311,-95,166,-13161
5.921936,-100,187,-13160
5.937561,-106,178,-13172
5.953186,-100,164,-13167
5.968811,-93,176,-13158
5.984436,-100,185,-13158
6.000061,-104,189,-13154
6.015686,-102,182,-13154
6.031311,-115,173,-13156
6.046936,-113,166,-13154
6.062561,-86,148,-13163
6.078186,-100,158,-13167
6.093811,-118,178,-13154
6.109436,-99,174,-13154
6.125061,-111,178,-13161
6.140686,-115,180,-13170
6.156311,-100,185,-13151
6.171814,-115,194,-13140
6.187439,-102,174,-13174
6.203064,-106,153,-13181
6.218689,-86,226,-13169
6.234314,-122,139,-13158
6.249939,-161,146,-13154
6.265564,30,355,-13195
6.281189,-281,-370,-13147
6.296814,-381,-229,-13158
6.312439,258,908,-13329
6.328064,98,376,-13254
6.343689,-199,-22,-13120
6.359314,-52,278,-13158
6.374939,-97,160,-13156
6.390564,-115,162,-13153
6.406189,-100,207,-13165
6.421814,-113,180,-13156
6.437439,-99,162,-13160
6.453064,-113,169,-13161
6.468689,-131,191,-13160
6.484314,-109,183,-13154
6.499939,-99,178,-13156
6.515564,-104,185,-13151
6.531189,-106,178,-13145
6.546814,-108,183,-13172
6.562439,-108,194,-13179
6.578064,-93,146,-13167
6.593689,-88,162,-13154
6.609314,-170,269,-13147
6.624939,-13,23,-13165
6.640564,-118,330,-13183
6.656189,-324,207,-13145
6.671814,892,-1561,-13219
6.687439,-177,-547,-13319
6.703064,-2059,1421,-13210
6.718689,3,705,-13144
6.734314,119,167,-13160
6.749939,-547,126,-13154
6.765564,726,296,-13165
6.781189,221,266,-13169
6.796814,-129,207,-13163
6.812439,158,346,-13149
6.828064,16,-442,-13165
6.843689,-184,-581,-13153
6.859314,-231,721,-13136
6.874939,-17,817,-13169
6.890564,-204,-42,-13165
6.906189,-261,60,-13140
6.921814,-17,312,-13140
6.937439,1,483,-13165
6.953064,-70,467,-13176
6.968689,-115,201,-13158
6.984314,-86,0,-13161
6.999939,-29,-400,-13181
7.015564,-59,17,-13170
7.031189,-184,724,-13156
7.046814,-179,292,-13156
7.062439,-63,132,-13156
7.078064,-54,276,-13169
7.093689,-88,87,-13176
7.109314,-99,121,-13165
7.124939,-118,164,-13165
7.140564,-168,466,-13167
7.156189,-142,433,-13163
7.171814,-109,237,-13167
7.187439,-167,519,-13153
7.203064,-118,151,-13149
7.218689,-59,-181,-13170
7.234314,-86,244,-13167
7.249939,-75,385,-13158
7.265564,-88,262,-13172
7.281189,-145,130,-13163
7.296814,-163,5,-13154
7.312439,-133,82,-13174
7.328064,-92,171,-13174
7.343689,-111,174,-13156
7.359314,-140,203,-13149
7.374939,-67,185,-13154
7.390564,-150,221,-13158
7.406189,-293,371,-13154
7.421814,-143,303,-13151
7.437439,39,24,-13138
7.453064,48,46,-13144
7.468689,-86,242,-13163
7.484314,-156,194,-13170
7.499939,46,194,-13140
7.515564,-4,246,-13115
7.531189,-288,173,-13170
7.546814,-208,173,-13181
7.562439,-100,183,-13160
7.578064,-131,180,-13185
7.593689,-118,187,-13178
7.609314,-90,135,-13161
7.624939,-134,342,-13149
7.640564,-127,478,-13151
7.656189,1,385,-13161
7.671814,24,457,-13163
7.687439,-56,107,-13160
7.703064,-200,-308,-13151
7.718689,-218,-49,-13158
7.734314,-97,230,-13160
7.749939,-100,205,-13149
7.765564,-113,205,-13156
7.781189,-90,224,-13158
7.796814,-106,203,-13151
7.812439,-92,203,-13170
7.828064,-77,201,-13169
7.843689,-113,253,-13153
7.859314,-92,223,-13167
7.874939,-90,199,-13161
7.890564,-193,449,-13151
7.906189,-118,342,-13161
7.921814,-17,66,-13163
7.937439,-134,276,-13160
7.953064,-192,314,-13163
7.968689,-140,162,-13160
7.984314,-93,242,-13140
7.999939,-65,221,-13142
8.015564,-54,144,-13179
8.031189,-49,180,-13160
8.046814,-61,183,-13131
8.062439,-88,228,-13165
8.078064,-93,257,-13163
8.093689,-77,214,-13140
8.109314,-111,235,-13158
8.124939,-134,251,-13170
8.140564,-58,182,-13165
8.156189,-200,310,-13161
8.171814,-275,398,-13158
8.187439,-17,192,-13161
8.203064,-11,166,-13169
8.218689,-74,173,-13174
8.234314,-29,135,-13169
8.249939,-95,228,-13158
8.265564,-113,241,-13160
8.281189,-88,212,-13172
8.296814,-92,226,-13158
8.312439,-86,216,-13147
8.328064,-81,212,-13158
8.343689,-84,233,-13147
8.359314,-90,224,-13156
8.374939,-97,219,-13176
8.390564,-108,241,-13167
8.406189,-92,219,-13161
8.421814,-92,221,-13154
8.437439,-86,192,-13153
8.453064,-83,210,-13161
8.468689,-140,291,-13151
8.484314,-15,23,-13140
8.499939,85,64,-13144
8.515564,-86,389,-13161
8.531189,-218,248,-13161
8.546814,-231,253,-13115
8.562439,-108,105,-13211
8.578064,-59,-6,-13304
8.593689,-149,324,-13167
8.609314,-120,260,-13129
8.624939,-93,160,-13190
8.640564,-122,285,-13160
8.656189,-109,239,-13151
8.671814,-92,183,-13179
8.687439,-111,207,-13174
8.703064,-117,198,-13160
8.718689,-106,185,-13161
8.734314,-117,192,-13156
8.749939,-120,183,-13147
8.765564,-120,187,-13156
8.781189,-117,214,-13172
8.796814,-102,205,-13156
8.812439,-95,176,-13144
8.828064,-100,187,-13174
8.843689,-120,198,-13170
8.859314,-120,199,-13133
8.874939,-104,210,-13145
8.890564,-100,189,-13163
8.906189,-100,176,-13145
8.921814,-99,201,-13147
8.937439,-95,203,-13161
8.953064,-99,194,-13170
8.968689,-118,191,-13174
8.984314,-122,201,-13149
8.999939,-104,207,-13145
9.015564,-104,199,-13172
9.031189,-111,196,-13170
9.046814,-99,194,-13160
9.062439,-95,189,-13170
9.078064,-109,176,-13169
9.093689,-113,187,-13147
9.109314,-97,208,-13154
9.124939,-92,205,-13161
9.140564,-97,192,-13154
9.156189,-106,198,-13156
9.171814,-122,205,-13144
9.187439,-104,201,-13147
9.203064,-81,180,-13167
9.218689,-118,191,-13174
9.234314,-118,224,-13158
9.249939,-88,214,-13144
9.265564,-100,191,-13160
9.281189,-104,203,-13161
9.296814,-99,196,-13154
9.312439,-88,207,-13144
9.328064,-102,207,-13160
9.343689,-104,158,-13183
9.359314,-86,296,-13067
9.374939,-115,362,-13035
9.390564,-118,192,-13165
9.406189,-108,176,-13161
9.421814,-113,212,-13138
9.437439,-100,187,-13178
9.453064,-108,185,-13161
9.468689,-106,191,-13147
9.484314,-99,201,-13158
9.499939,-111,187,-13151
9.515564,-95,198,-13149
9.531189,-92,226,-13160
9.546814,-111,207,-13165
9.562439,-109,183,-13167
9.578064,-93,194,-13169
9.593689,-106,192,-13151
9.609314,-138,185,-13128
9.624939,-125,198,-13138
9.640564,-102,210,-13149
9.656189,-111,219,-13153
9.671814,-115,214,-13167
9.687439,-95,194,-13161
9.703064,-92,185,-13172
9.718689,-100,182,-13170
9.734314,-93,183,-13108
9.749939,-104,207,-13115
9.765564,-108,192,-13167
9.781189,-106,185,-13169
9.796814,-149,223,-13172
9.812439,-95,148,-13149
9.828064,-165,257,-13169
9.843689,-349,392,-13167
9.859314,-161,128,-13113
9.874939,-58,130,-13124
9.890564,-129,258,-13176
9.906189,-67,135,-13197
9.921814,-174,267,-13074
9.937439,-81,69,-13295
9.953064,76,-277,-13701
9.968689,-163,98,-13424
9.984314,-183,262,-13111
9.999939,-88,144,-13165
10.015564,-179,210,-13174
10.031189,-175,178,-13160
10.046814,-159,176,-13151
10.062439,-159,194,-13161
10.078064,-140,162,-13169
10.093689,-167,174,-13158
10.109314,-188,180,-13151
10.124939,-170,169,-13151
10.140564,-165,194,-13165
10.156189,-179,205,-13160
10.171783,-179,185,-13154
10.187408,-174,185,-13176
10.203033,-167,182,-13167
10.218658,-163,178,-13140
10.234283,-170,189,-13145
10.249908,-181,192,-13156
10.265533,-161,183,-13156
10.281158,-140,178,-13153
; 10 stopping logging: shutdown: switched off
