;Title, http://www.gcdataconcepts.com, x2-2,Kionix KXRB5-2050
;Version, 1102, Build date, Oct  6 2015,  SN:CCDC10023F56AE8
;Start_time, 2007-01-05, 21:49:38.761
;Temperature, -999.00, deg C,  Vbat, 4164, mv
;Gain, high
;SampleRate, 64,Hz
;Deadband, 0, counts
;DeadbandTimeout, 0,sec
;Headers, time,Ax,Ay,Az
0.394562,635,-13,-13154
0.410187,630,-9,-13156
0.425812,615,-36,-13188
0.441437,619,-40,-13154
0.457062,607,-34,-13142
0.472687,608,-20,-13147
0.488312,615,-4,-13181
0.519562,591,-15,-13147
0.535187,587,33,-13101
0.550812,630,-11,-13224
0.566437,646,-106,-13190
0.582062,594,-18,-13065
0.597687,541,33,-13190
0.613312,612,-27,-13195
0.628937,674,-47,-13126
0.644562,594,-40,-13210
0.660187,574,-17,-13154
0.675812,585,3,-13106
0.691437,596,-34,-13220
0.707062,664,-81,-13213
0.722687,637,-54,-13115
0.738312,571,24,-13115
0.753937,580,44,-13183
0.769562,635,-34,-13176
0.785187,642,-52,-13122
0.800812,619,-33,-13213
0.816437,653,-100,-13220
0.832062,630,-52,-13106
0.847687,551,53,-13185
0.863312,603,1,-13186
0.878937,669,-56,-13092
0.894562,583,-33,-13178
0.910187,574,7,-13161
0.925812,630,1,-13097
0.941437,573,-20,-13185
0.957062,587,5,-13179
0.972687,658,-29,-13135
0.988312,601,-54,-13178
1.003937,560,12,-13167
1.019562,615,-4,-13154
1.035187,644,-79,-13192
1.050812,623,-58,-13170
1.066437,576,21,-13124
1.082062,603,21,-13160
1.097687,674,-75,-13204
1.113312,601,-58,-13131
1.128937,580,23,-13119
1.144562,660,-50,-13201
1.160187,632,-75,-13163
1.175812,642,-18,-13151
1.191437,657,-52,-13208
1.207062,564,-34,-13140
1.222687,596,17,-13101
1.238312,667,-68,-13192
1.253937,592,-63,-13161
1.269562,583,44,-13113
1.285187,655,-42,-13194
1.300812,623,-68,-13178
1.316437,621,-8,-13174
1.332062,642,-79,-13186
1.347687,585,-18,-13088
1.363312,614,19,-13165
1.378937,655,-86,-13197
1.394562,583,-13,-13086
1.410187,558,12,-13178
1.425812,587,-63,-13167
1.441437,576,16,-13097
1.457062,628,-24,-13219
1.472687,651,-86,-13144
1.488312,576,28,-13099
1.503937,619,-18,-13228
1.519562,682,-84,-13153
1.535187,601,-11,-13119
1.550812,592,-20,-13190
1.566437,665,-58,-13176
1.582062,605,-52,-13160
1.597687,562,0,-13142
1.613312,630,-17,-13161
1.628937,607,-47,-13154
1.644562,598,-4,-13128
1.660187,642,-42,-13172
1.675812,635,-68,-13170
1.691437,633,-36,-13145
1.707062,632,-24,-13176
1.722687,624,-20,-13170
1.738312,623,-18,-13154
1.753937,610,-8,-13172
1.769562,598,-11,-13160
1.785187,603,-22,-13147
1.800812,617,-36,-13172
1.816437,614,-47,-13161
1.832062,610,-11,-13145
1.847687,623,-2,-13178
1.863312,617,-43,-13147
1.878937,598,-33,-13129
1.894562,596,-24,-13190
1.910187,623,-29,-13140
1.925812,633,-4,-13140
1.941437,605,-31,-13211
1.957062,603,-22,-13122
1.972687,601,23,-13142
1.988312,596,-38,-13210
2.003937,615,-54,-13119
2.019562,596,-34,-13145
2.035187,601,-33,-13176
2.050812,623,-15,-13174
2.066437,596,-50,-13179
2.082062,610,-9,-13122
2.097687,621,-9,-13190
2.113312,612,-52,-13153
2.128937,621,30,-13092
2.144562,598,0,-13228
2.160187,608,-40,-13145
2.175812,632,7,-13103
2.191437,601,-54,-13231
2.207062,614,-50,-13136
2.222687,621,-20,-13119
2.238312,574,-36,-13194
2.253937,601,-4,-13163
2.269562,632,-25,-13147
2.285187,583,7,-13140
2.300812,619,17,-13217
2.316437,660,-74,-13178
2.332062,605,0,-13086
2.347687,605,0,-13211
2.363312,599,-79,-13154
2.378937,562,24,-13061
2.394562,589,-11,-13215
2.410187,630,-95,-13192
2.425812,617,-31,-13113
2.441437,578,-4,-13185
2.457062,612,-11,-13178
2.472687,621,-17,-13147
2.488312,610,-15,-13165
2.503937,630,-36,-13154
2.519562,594,-25,-13142
2.535187,608,-13,-13153
2.550812,649,-70,-13179
2.566437,644,-75,-13179
2.582062,594,-27,-13136
2.597687,598,-9,-13154
2.613312,648,-47,-13194
2.628937,592,-24,-13151
2.644562,608,7,-13128
2.660187,669,7,-13208
2.675812,682,49,-13281
2.691437,719,39,-13258
2.707062,566,-102,-13088
2.722687,358,-386,-12819
2.738312,380,-517,-12887
2.753937,608,-181,-13242
2.769562,833,246,-13431
2.785187,769,330,-13354
2.800812,617,262,-13069
2.816437,517,82,-13033
2.832062,474,-284,-13119
2.847687,551,-306,-13067
2.863312,664,-142,-13270
2.878937,694,19,-13294
2.894562,660,305,-13111
2.910187,648,228,-13147
2.925812,562,-2,-13092
2.941437,528,-150,-13088
2.957062,599,-320,-13213
2.972687,619,-181,-13220
2.988312,660,87,-13154
3.003937,651,241,-13092
3.019562,591,253,-13131
3.035187,615,14,-13174
3.050812,615,-211,-13183
3.066437,580,-281,-13217
3.082062,594,-197,-13170
3.097687,623,49,-13092
3.113312,623,228,-13120
3.128937,623,194,-13199
3.144562,617,30,-13203
3.160187,605,-156,-13161
3.175812,573,-250,-13176
3.191437,492,-177,-13156
3.207062,755,-50,-12969
3.222687,494,364,-13304
3.238312,553,3,-13251
3.253937,1997,110,-11851
3.269562,512,2944,-12840
3.285187,-515,3544,-14784
3.300812,680,1537,-13285
3.316437,-636,214,-11553
3.332062,442,-1257,-11779
3.347687,1687,-1261,-13369
3.363312,964,714,-14011
3.378937,1610,1823,-13142
3.394562,1255,548,-13406
3.410187,901,-616,-13138
3.425812,1023,-765,-12649
3.441437,907,-1224,-13244
3.457062,962,-1016,-13394
3.472687,864,-459,-13376
3.488312,710,-484,-12994
3.503937,626,-395,-12772
3.519562,690,-681,-13399
3.535187,824,-1054,-13326
3.550812,910,-820,-13213
3.566437,921,-641,-13520
3.582062,832,-117,-12913
3.597687,778,403,-12792
3.613312,760,303,-13224
3.628937,699,374,-13035
3.644562,682,153,-13240
3.660187,628,-275,-13438
3.675812,560,-161,-13190
3.691437,592,-4,-13101
3.707062,610,280,-13035
3.722687,676,560,-13090
3.738312,826,312,-13120
3.753937,824,57,-13136
3.769562,807,-134,-13319
3.785187,844,-211,-13201
3.800812,696,169,-13158
3.816437,567,460,-13215
3.832062,533,573,-12917
3.847687,462,530,-13011
3.863312,564,124,-13294
3.878937,717,-118,-13183
3.894562,726,-52,-13299
3.910187,789,69,-13317
3.925812,819,296,-12958
3.941437,698,496,-12944
3.957062,689,424,-13128
3.972687,764,149,-13174
3.988312,682,5,-13285
4.003937,612,30,-13347
4.019562,573,116,-13149
4.035187,503,312,-12961
4.050812,553,401,-13033
4.066437,669,298,-13117
4.082062,849,112,-13213
4.097687,912,-100,-13369
4.113312,776,-54,-13247
4.128937,721,173,-13042
4.144684,628,314,-13051
4.160309,533,439,-13083
4.175934,583,382,-13083
4.191559,596,189,-13231
4.207184,644,16,-13349
4.222809,678,-47,-13131
4.238434,632,162,-13042
4.254059,726,271,-13174
4.269684,787,280,-13045
4.285309,755,303,-13106
4.300934,789,87,-13344
4.316559,749,-38,-13199
4.332184,626,62,-13108
4.347809,558,198,-13194
4.363434,551,371,-13094
4.379059,583,398,-13040
4.394684,640,262,-13179
4.410309,721,80,-13254
4.425934,789,-65,-13161
4.441559,789,-4,-13160
4.457184,765,128,-13240
4.472809,730,271,-13076
4.488434,651,362,-13022
4.504059,598,219,-13217
4.519684,617,73,-13188
4.535309,633,42,-13179
4.550934,624,48,-13272
4.566559,653,207,-13136
4.582184,694,341,-13047
4.597809,714,283,-13095
4.613434,760,176,-13136
4.629059,803,30,-13217
4.644684,776,-29,-13245
4.660309,724,53,-13235
4.675934,639,180,-13131
4.691559,555,330,-13017
4.707184,558,324,-13090
4.722809,607,192,-13158
4.738434,678,78,-13204
4.754059,758,-2,-13267
4.769684,765,60,-13176
4.785309,735,198,-13067
4.800934,721,258,-13065
4.816559,719,241,-13111
4.832184,723,139,-13201
4.847809,689,37,-13242
4.863434,637,33,-13229
4.879059,599,107,-13170
4.894684,582,235,-13044
4.910309,642,321,-13072
4.925934,710,260,-13179
4.941559,739,176,-13165
4.957184,796,57,-13236
4.972809,780,-11,-13240
4.988434,737,101,-13061
5.004059,673,226,-13067
5.019684,594,287,-13167
5.035309,633,249,-13122
5.050934,674,135,-13206
5.066559,664,17,-13281
5.082184,657,74,-13126
5.097809,698,187,-13119
5.113434,715,237,-13145
5.129059,715,342,-13069
5.144562,767,242,-13140
5.160187,715,74,-13204
5.175812,653,80,-13199
5.191437,690,53,-13195
5.207062,628,123,-13117
5.222687,548,316,-13117
5.238312,633,292,-13138
5.253937,657,233,-13079
5.269562,671,191,-13203
5.285187,799,26,-13242
5.300812,782,76,-13122
5.316437,703,232,-13190
5.332062,726,251,-13128
5.347687,667,285,-13033
5.363312,612,212,-13195
5.378937,640,69,-13183
5.394562,601,83,-13129
5.410187,628,132,-13219
5.425812,705,160,-13154
5.441437,667,282,-13070
5.457062,701,321,-13110
5.472687,778,180,-13153
5.488312,732,101,-13188
5.503937,724,71,-13215
5.519562,690,87,-13195
5.535187,592,210,-13131
5.550812,589,257,-13081
5.566437,621,233,-13136
5.582062,655,178,-13181
5.597687,699,92,-13176
5.613312,728,73,-13219
5.628937,735,132,-13169
5.644562,719,230,-13074
5.660187,701,273,-13101
5.675812,707,228,-13144
5.691437,708,164,-13174
5.707062,689,74,-13211
5.722687,653,46,-13186
5.738312,623,124,-13149
5.753937,619,201,-13110
5.769562,649,249,-13092
5.785187,707,212,-13165
5.800812,764,117,-13201
5.816437,783,92,-13199
5.832062,746,82,-13199
5.847687,694,126,-13136
5.863312,665,228,-13111
5.878937,637,242,-13133
5.894562,619,207,-13135
5.910187,649,117,-13186
5.925812,680,41,-13197
5.941437,696,92,-13156
5.957062,712,144,-13154
5.972687,715,208,-13106
5.988312,726,271,-13110
6.003937,733,203,-13176
6.019562,721,132,-13160
6.035187,694,101,-13192
6.050812,658,73,-13206
6.066437,639,153,-13104
6.082062,623,232,-13115
6.097687,632,212,-13138
6.113312,678,182,-13128
6.128937,724,108,-13215
6.144562,753,58,-13201
6.160187,749,117,-13144
6.175812,730,166,-13186
6.191437,705,210,-13119
6.207062,665,244,-13088
6.222687,648,178,-13206
6.238312,646,110,-13188
6.253937,649,108,-13172
6.269562,662,92,-13195
6.285187,664,180,-13099
6.300812,707,251,-13115
6.316437,732,182,-13158
6.332062,714,166,-13160
6.347687,726,121,-13201
6.363312,698,105,-13183
6.378937,680,166,-13178
6.394562,657,187,-13129
6.410187,585,264,-13095
6.425812,607,266,-13188
6.441437,667,157,-13181
6.457062,689,128,-13151
6.472687,714,107,-13199
6.488312,715,124,-13144
6.503937,708,208,-13131
6.519562,687,232,-13161
6.535187,685,217,-13094
6.550812,685,162,-13163
6.566437,657,101,-13244
6.582062,648,123,-13126
6.597687,648,176,-13111
6.613312,667,203,-13153
6.628937,680,230,-13103
6.644562,696,198,-13131
6.660187,724,128,-13169
6.675812,723,80,-13176
6.691437,703,91,-13160
6.707062,690,182,-13144
6.722687,664,226,-13167
6.738312,640,223,-13115
6.753937,635,219,-13119
6.769562,644,153,-13229
6.785187,694,85,-13165
6.800812,701,123,-13135
6.816437,690,142,-13213
6.832062,715,183,-13072
6.847687,723,239,-13101
6.863312,707,153,-13231
6.878937,685,139,-13094
6.894562,682,146,-13160
6.910187,649,101,-13249
6.925812,642,167,-13094
6.941437,669,208,-13113
6.957062,657,199,-13186
6.972687,682,182,-13140
6.988312,728,107,-13170
7.003937,728,74,-13194
7.019562,712,135,-13156
7.035187,698,173,-13149
7.050812,680,178,-13124
7.066437,660,194,-13126
7.082062,655,166,-13178
7.097687,648,123,-13170
7.113312,658,126,-13158
7.128937,687,149,-13170
7.144562,687,178,-13115
7.160187,705,194,-13120
7.175812,726,173,-13179
7.191437,728,148,-13142
7.207062,732,124,-13153
7.222687,687,107,-13190
7.238312,648,142,-13131
7.253937,637,194,-13106
7.269562,632,233,-13138
7.285187,667,203,-13169
7.300812,698,144,-13142
7.316437,699,153,-13154
7.332062,708,124,-13224
7.347687,703,149,-13128
7.363312,692,235,-13099
7.378937,692,187,-13183
7.394562,671,176,-13111
7.410187,657,178,-13154
7.425812,685,87,-13231
7.441437,671,133,-13122
7.457062,632,223,-13144
7.472687,667,205,-13169
7.488312,703,212,-13103
7.503937,705,182,-13169
7.519562,719,149,-13178
7.535187,724,171,-13156
7.550812,710,124,-13204
7.566437,657,164,-13128
7.582062,615,233,-13106
7.597687,617,199,-13154
7.613312,646,194,-13145
7.628937,696,144,-13185
7.644562,715,112,-13172
7.660187,721,153,-13165
7.675812,726,157,-13160
7.691437,703,214,-13088
7.707062,683,224,-13163
7.722687,678,155,-13181
7.738312,669,160,-13131
7.753937,653,132,-13222
7.769562,649,135,-13147
7.785187,658,226,-13065
7.800812,658,219,-13192
7.816437,674,194,-13142
7.832062,705,191,-13101
7.847687,717,121,-13231
7.863312,707,124,-13167
7.878937,687,185,-13117
7.894562,667,182,-13188
7.910187,674,203,-13128
7.925812,683,203,-13124
7.941437,664,151,-13213
7.957062,657,128,-13170
7.972687,667,137,-13140
7.988312,689,139,-13185
8.003937,699,169,-13136
8.019562,690,208,-13129
8.035187,723,160,-13186
8.050812,730,137,-13154
8.066437,671,148,-13160
8.082062,660,135,-13179
8.097687,669,164,-13129
8.113312,655,182,-13126
8.128937,662,185,-13151
8.144562,676,180,-13160
8.160187,699,123,-13140
8.175812,710,107,-13176
8.191437,712,112,-13210
8.207062,712,148,-13086
8.222687,696,208,-13128
8.238312,680,167,-13211
8.253937,673,194,-13081
8.269562,673,205,-13174
8.285187,678,107,-13238
8.300812,680,151,-13076
8.316437,673,191,-13176
8.332062,683,160,-13199
8.347687,701,207,-13044
8.363312,717,187,-13179
8.378937,723,128,-13233
8.394562,698,149,-13088
8.410187,673,158,-13161
8.425812,680,155,-13192
8.441437,680,201,-13070
8.457062,662,216,-13135
8.472687,669,162,-13233
8.488312,690,132,-13147
8.503937,701,130,-13129
8.519562,699,124,-13220
8.535187,703,162,-13131
8.550812,708,226,-13063
8.566437,682,207,-13235
8.582062,662,146,-13185
8.597687,665,169,-13045
8.613312,662,162,-13235
8.628937,662,135,-13203
8.644562,653,223,-13017
8.660187,671,214,-13206
8.675812,721,130,-13226
8.691437,714,169,-13053
8.707062,678,166,-13197
8.722687,685,137,-13224
8.738312,694,173,-13067
8.753937,665,164,-13147
8.769562,644,180,-13203
8.785187,662,212,-13128
8.800812,703,173,-13145
8.816437,692,148,-13204
8.832062,662,148,-13170
8.847687,696,164,-13106
8.863312,701,189,-13167
8.878937,682,178,-13160
8.894562,680,176,-13090
8.910187,673,153,-13208
8.925812,685,110,-13213
8.941437,682,149,-13104
8.957062,640,189,-13179
8.972687,653,180,-13183
8.988312,680,198,-13085
9.003937,690,194,-13160
9.019562,715,130,-13186
9.035187,680,162,-13113
9.050812,690,185,-13194
9.066437,719,126,-13174
9.082062,660,191,-13099
9.097687,658,187,-13179
9.113312,674,139,-13153
9.128937,683,183,-13149
9.144562,683,133,-13208
9.160187,649,160,-13124
9.175812,705,208,-13133
9.191437,715,169,-13163
9.207062,705,191,-13115
9.222687,728,164,-13151
9.238312,701,132,-13195
9.253937,703,124,-13169
9.269562,658,155,-13129
9.285187,667,192,-13165
9.300812,694,128,-13176
9.316437,630,173,-13113
9.332062,689,207,-13181
9.347687,721,108,-13201
9.363312,660,178,-13094
9.378937,715,185,-13170
9.394562,699,121,-13188
9.410187,653,223,-13090
9.425812,701,176,-13185
9.441437,682,73,-13208
9.457062,653,137,-13099
9.472687,674,164,-13154
9.488312,669,155,-13190
9.503937,678,180,-13120
9.519562,694,183,-13128
9.535187,699,176,-13154
9.550812,719,164,-13160
9.566437,708,139,-13153
9.582062,689,146,-13147
9.597687,678,166,-13181
9.613312,648,171,-13140
9.628937,640,189,-13111
9.644562,646,149,-13197
9.660187,678,126,-13165
9.675812,719,164,-13140
9.691437,701,157,-13222
9.707062,671,185,-13131
9.722687,673,233,-13104
9.738312,689,182,-13210
9.753937,692,157,-13136
9.769562,676,167,-13128
9.785187,671,139,-13220
9.800812,680,162,-13145
9.816437,671,180,-13128
9.832062,658,162,-13179
9.847687,671,182,-13126
9.863312,689,174,-13140
9.878937,698,135,-13181
9.894562,698,162,-13145
9.910187,694,169,-13142
9.925812,674,151,-13147
9.941437,651,185,-13144
9.957062,642,187,-13158
9.972687,664,162,-13170
9.988312,699,132,-13183
10.003937,689,123,-13145
10.019562,678,164,-13138
10.035187,698,164,-13178
10.050812,690,174,-13106
10.066437,674,203,-13126
10.082062,678,146,-13204
10.097687,664,153,-13115
10.113312,662,183,-13151
10.128937,671,135,-13199
10.144562,664,198,-13085
10.160187,694,194,-13169
10.175812,717,94,-13208
10.191437,687,153,-13094
10.207062,694,180,-13165
10.222687,703,146,-13181
10.238312,674,183,-13101
10.253937,673,182,-13151
10.269562,682,178,-13174
10.285187,667,174,-13138
10.300812,671,135,-13161
10.316437,694,130,-13194
10.332062,682,153,-13151
10.347687,662,182,-13097
10.363312,680,174,-13176
10.378937,690,148,-13179
10.394562,690,180,-13085
10.410187,690,158,-13194
10.425812,676,116,-13220
10.441437,674,189,-13081
10.457062,667,205,-13190
10.472687,665,149,-13204
10.488312,687,191,-13047
10.503937,680,191,-13176
10.519562,665,130,-13215
10.535187,690,146,-13097
10.550812,705,141,-13201
10.566437,687,128,-13211
10.582062,674,192,-13092
10.597687,674,203,-13161
10.613312,674,162,-13192
10.628937,669,162,-13124
10.644562,664,146,-13163
10.660187,644,171,-13174
10.675812,664,187,-13151
10.691437,699,144,-13136
10.707062,701,171,-13153
10.722687,690,160,-13188
10.738312,676,167,-13111
10.753937,685,207,-13140
10.769562,680,151,-13201
10.785187,674,171,-13099
10.800812,689,192,-13149
10.816437,680,142,-13203
10.832062,682,176,-13104
10.847687,687,169,-13160
10.863312,678,130,-13172
10.878937,687,185,-13104
10.894562,701,176,-13183
10.910187,699,155,-13163
10.925812,712,173,-13131
10.941437,694,133,-13201
10.957062,660,144,-13138
10.972687,678,183,-13135
10.988312,678,164,-13190
11.003937,646,180,-13110
11.019562,651,191,-13124
11.035187,690,164,-13192
11.050812,707,160,-13129
11.066437,689,167,-13140
11.082062,683,174,-13203
11.097687,685,174,-13151
11.113312,673,176,-13117
11.128937,667,182,-13169
11.144562,682,174,-13178
11.160187,687,155,-13131
11.175812,673,169,-13172
11.191437,690,158,-13220
11.207062,715,137,-13111
11.222687,699,198,-13120
11.238312,690,167,-13228
11.253937,692,135,-13106
11.269562,685,192,-13133
11.285187,687,139,-13256
11.300812,674,151,-13092
11.316437,649,214,-13103
11.332062,658,157,-13215
11.347687,678,183,-13110
11.363312,690,203,-13140
11.378937,690,139,-13199
11.394562,676,162,-13133
11.410187,690,173,-13163
11.425812,699,160,-13174
11.441437,674,178,-13138
11.457062,669,173,-13154
11.472687,676,176,-13163
11.488312,690,157,-13176
11.503937,682,158,-13145
11.519562,664,199,-13117
11.535187,676,192,-13169
11.550812,689,169,-13167
11.566437,687,166,-13131
11.582062,694,164,-13154
11.597687,694,148,-13153
11.613312,682,166,-13154
11.628937,671,178,-13165
11.644562,651,183,-13119
11.660187,678,185,-13154
11.675812,703,135,-13172
11.691437,682,164,-13126
11.707062,687,174,-13178
11.722687,690,155,-13156
11.738312,682,205,-13126
11.753937,690,183,-13170
11.769562,683,176,-13131
11.785187,678,216,-13147
11.800812,678,185,-13183
11.816437,664,182,-13145
11.832062,665,194,-13170
11.847687,662,203,-13160
11.863312,658,230,-13129
11.878937,694,208,-13165
11.894562,698,221,-13145
11.910187,687,237,-13140
11.925812,715,182,-13181
11.941437,707,183,-13158
11.957062,671,237,-13153
11.972687,669,226,-13158
11.988312,665,224,-13133
12.003937,662,244,-13183
12.019562,665,219,-13174
12.035187,674,217,-13101
12.050812,696,226,-13170
12.066437,689,230,-13169
12.082062,685,244,-13099
12.097687,701,221,-13163
12.113312,701,216,-13167
12.128937,690,235,-13133
12.144562,667,235,-13156
12.160187,664,255,-13156
12.175812,685,251,-13153
12.191437,676,251,-13122
12.207062,669,291,-13154
12.222687,694,258,-13194
12.238312,710,237,-13110
12.253937,701,271,-13156
12.269562,685,244,-13203
12.285187,696,246,-13083
12.300812,730,251,-13153
12.316437,705,214,-13208
12.332062,669,264,-13079
12.347687,685,264,-13158
12.363312,692,221,-13208
12.378937,687,285,-13092
12.394562,683,298,-13158
12.410187,694,267,-13192
12.425812,705,294,-13119
12.441437,703,291,-13178
12.457062,708,278,-13179
12.472687,710,307,-13120
12.488312,712,321,-13156
12.503937,701,321,-13151
12.519562,683,328,-13136
12.535187,701,305,-13165
12.550812,728,289,-13158
12.566437,717,307,-13158
12.582062,705,303,-13136
12.597687,712,291,-13128
12.613312,708,283,-13153
12.628937,708,312,-13129
12.644562,721,348,-13165
12.660187,707,339,-13167
12.675812,689,355,-13120
12.691437,705,349,-13183
12.707062,701,342,-13126
12.722687,694,398,-13104
12.738312,708,387,-13228
12.753937,699,367,-13133
12.769562,710,392,-13092
12.785187,715,358,-13224
12.800812,698,355,-13142
12.816437,717,389,-13092
12.832062,732,373,-13210
12.847687,717,369,-13158
12.863312,705,410,-13101
12.878937,715,412,-13199
12.894562,701,394,-13160
12.910187,683,426,-13083
12.925812,707,441,-13154
12.941437,703,437,-13172
12.957062,689,433,-13113
12.972687,699,423,-13119
12.988312,732,432,-13172
13.003937,742,426,-13156
13.019562,707,453,-13113
13.035187,712,478,-13176
13.050812,707,466,-13165
13.066437,664,476,-13081
13.082062,687,458,-13156
13.097687,692,457,-13188
13.113312,665,521,-13124
13.128937,690,510,-13147
13.144562,703,482,-13151
13.160187,712,501,-13136
13.175812,733,462,-13163
13.191437,719,458,-13176
13.207062,703,523,-13185
13.222687,678,521,-13136
13.238312,669,514,-13111
13.253937,680,546,-13163
13.269562,655,564,-13129
13.285187,655,576,-13117
13.300812,698,549,-13179
13.316437,685,530,-13131
13.332062,671,560,-13129
13.347687,689,566,-13197
13.363312,658,601,-13131
13.378937,637,619,-13113
13.394562,653,573,-13170
13.410187,648,591,-13122
13.425812,651,608,-13129
13.441437,648,585,-13181
13.457062,633,589,-13142
13.472687,640,569,-13144
13.488312,633,589,-13163
13.503937,639,648,-13133
13.519562,640,660,-13115
13.535187,615,692,-13140
13.550812,640,683,-13176
13.566437,624,635,-13129
13.582062,582,640,-13119
13.597687,612,612,-13178
13.613312,596,610,-13122
13.628937,567,680,-13111
13.644562,594,682,-13178
13.660187,585,660,-13129
13.675812,580,687,-13135
13.691437,587,708,-13181
13.707062,566,701,-13126
13.722687,566,682,-13122
13.738312,558,671,-13167
13.753937,549,682,-13154
13.769562,530,707,-13142
13.785187,530,712,-13142
13.800812,553,723,-13138
13.816437,535,744,-13138
13.832062,508,739,-13140
13.847687,516,726,-13151
13.863312,523,735,-13131
13.878937,516,778,-13135
13.894562,503,776,-13176
13.910187,494,735,-13138
13.925812,505,726,-13122
13.941437,482,739,-13158
13.957062,442,749,-13110
13.972687,449,737,-13122
13.988312,478,748,-13210
14.003937,469,776,-13145
14.019562,435,812,-13094
14.035187,448,844,-13188
14.050812,432,789,-13145
14.066437,382,749,-13074
14.082062,408,764,-13153
14.097687,414,755,-13153
14.113312,407,783,-13138
14.128937,423,799,-13188
14.144684,373,805,-13158
14.160309,371,812,-13120
14.175934,385,789,-13140
14.191559,349,796,-13142
14.207184,333,796,-13099
14.222809,342,801,-13165
14.238434,373,830,-13226
14.254059,323,828,-13092
14.269684,294,812,-13115
14.285309,328,814,-13176
14.300934,266,778,-13036
14.316559,282,783,-13138
14.332184,330,849,-13228
14.347809,255,835,-13086
14.363434,289,840,-13178
14.379059,292,865,-13206
14.394684,176,812,-13049
14.410309,207,789,-13129
14.425934,237,794,-13183
14.441559,205,792,-13104
14.457184,232,817,-13165
14.472809,221,833,-13195
14.488434,203,808,-13149
14.504059,196,780,-13106
14.519684,142,787,-13092
14.535309,151,839,-13176
14.550934,167,826,-13169
14.566559,144,782,-13126
14.582184,180,830,-13210
14.597809,144,817,-13151
14.613434,92,735,-13088
14.629059,137,758,-13179
14.644684,94,785,-13113
14.660309,67,787,-13099
14.675934,126,824,-13224
14.691559,85,794,-13142
14.707184,60,751,-13103
14.722809,55,764,-13174
14.738434,12,767,-13111
14.754059,37,753,-13124
14.769684,33,746,-13165
14.785309,26,749,-13151
14.800934,53,737,-13181
14.816559,17,714,-13145
14.832184,-9,726,-13135
14.847809,-25,742,-13160
14.863434,-49,733,-13126
14.879059,-36,746,-13151
14.894684,-47,733,-13160
14.910309,-81,690,-13108
14.925934,-56,719,-13161
14.941559,-34,723,-13188
14.957184,-77,676,-13124
14.972809,-83,699,-13142
14.988434,-65,673,-13163
15.004059,-92,617,-13113
15.019684,-106,660,-13128
15.035309,-104,682,-13179
15.050934,-97,676,-13183
15.066559,-104,690,-13147
15.082184,-145,623,-13129
15.097809,-150,571,-13149
15.113434,-127,610,-13120
15.129059,-131,617,-13151
15.144562,-133,648,-13206
15.160187,-120,635,-13147
15.175812,-127,551,-13165
15.191437,-183,553,-13158
15.207062,-211,564,-13094
15.222687,-181,564,-13160
15.238312,-172,605,-13169
15.253937,-179,566,-13153
15.269562,-199,510,-13170
15.285187,-215,516,-13117
15.300812,-183,494,-13163
15.316437,-163,499,-13181
15.332062,-179,507,-13110
15.347687,-192,474,-13192
15.363312,-204,449,-13192
15.378937,-233,455,-13067
15.394562,-243,458,-13147
15.410187,-217,455,-13204
15.425812,-215,433,-13110
15.441437,-227,383,-13174
15.457062,-224,392,-13194
15.472687,-215,398,-13079
15.488312,-202,394,-13153
15.503937,-204,414,-13192
15.519562,-208,355,-13126
15.535187,-218,308,-13174
15.550812,-213,291,-13178
15.566437,-238,291,-13126
15.582062,-268,355,-13136
15.597687,-229,330,-13160
15.613312,-199,258,-13170
15.628937,-179,255,-13138
15.644562,-190,249,-13172
15.660187,-215,287,-13181
15.675812,-174,271,-13065
15.691437,-195,203,-13220
15.707062,-240,241,-13245
15.722687,-193,198,-13001
15.738312,-238,174,-13201
15.753937,-252,233,-13226
15.769562,-167,137,-12969
15.785187,-193,101,-13217
15.800812,-186,171,-13269
15.816437,-127,135,-13024
15.832062,-181,144,-13197
15.847687,-179,171,-13238
15.863312,-118,66,-13054
15.878937,-167,53,-13195
15.894562,-193,121,-13254
15.910187,-159,94,-13110
15.925812,-150,41,-13156
15.941437,-147,5,-13215
15.957062,-129,16,-13133
15.972687,-111,49,-13136
15.988312,-108,58,-13244
16.003937,-75,35,-13160
16.019562,-25,-9,-13056
16.035187,-84,-17,-13235
16.050812,-113,1,-13211
16.066437,-45,-22,-13051
16.082062,-99,-43,-13253
16.097687,-77,-65,-13217
16.113312,16,-106,-13036
16.128937,-65,-52,-13258
16.144562,-38,-9,-13224
16.160187,71,-74,-13056
16.175812,16,-118,-13247
16.191437,19,-109,-13188
16.207062,83,-83,-13053
16.222687,19,-79,-13256
16.238312,42,-118,-13210
16.253937,98,-149,-13060
16.269562,33,-133,-13190
16.285187,73,-115,-13183
16.300812,135,-154,-13131
16.316437,124,-190,-13199
16.332062,167,-167,-13190
16.347687,169,-138,-13165
16.363312,166,-133,-13151
16.378937,189,-158,-13183
16.394562,167,-181,-13192
16.410187,203,-188,-13103
16.425812,189,-181,-13186
16.441437,174,-192,-13238
16.457062,289,-229,-13081
16.472687,276,-213,-13183
16.488312,239,-179,-13236
16.503937,341,-142,-13056
16.519562,332,-159,-13195
16.535187,314,-229,-13245
16.550812,392,-202,-13060
16.566437,349,-181,-13186
16.582062,364,-208,-13204
16.597687,433,-209,-13097
16.613312,367,-242,-13203
16.628937,408,-211,-13170
16.644562,449,-150,-13147
16.660187,435,-186,-13203
16.675812,535,-206,-13156
16.691437,503,-181,-13204
16.707062,487,-154,-13169
16.722687,562,-147,-13120
16.738312,528,-202,-13217
16.753937,569,-206,-13145
16.769562,576,-152,-13129
16.785187,557,-179,-13204
16.800812,646,-199,-13149
16.816437,599,-179,-13181
16.832062,596,-138,-13142
16.847687,682,-90,-13124
16.863312,649,-143,-13233
16.878937,698,-138,-13110
16.894562,705,-52,-13140
16.910187,667,-100,-13254
16.925812,767,-118,-13081
16.941437,737,-100,-13178
16.957062,703,-133,-13256
16.972687,787,-63,-13069
16.988312,748,-67,-13167
17.003937,744,-129,-13204
17.019562,796,-18,-13092
17.035187,785,23,-13167
17.050812,823,-42,-13192
17.066437,849,-36,-13170
17.082062,844,12,-13138
17.097687,851,57,-13138
17.113312,844,17,-13197
17.128937,869,-11,-13129
17.144562,871,32,-13172
17.160187,865,37,-13224
17.175812,910,62,-13086
17.191437,908,78,-13142
17.207062,901,103,-13190
17.222687,928,183,-13103
17.238312,935,149,-13185
17.253937,933,105,-13195
17.269562,926,169,-13117
17.285187,944,189,-13138
17.300812,962,167,-13131
17.316437,949,189,-13140
17.332062,953,232,-13172
17.347687,965,255,-13156
17.363312,964,237,-13165
17.378937,948,246,-13158
17.394562,940,310,-13135
17.410187,962,339,-13179
17.425812,978,316,-13167
17.441437,978,323,-13122
17.457062,969,371,-13179
17.472687,967,378,-13144
17.488312,992,367,-13088
17.503937,1003,383,-13194
17.519562,962,432,-13181
17.535187,946,471,-13111
17.550812,965,417,-13165
17.566437,935,448,-13113
17.582062,924,535,-13090
17.597687,948,489,-13172
17.613312,942,469,-13161
17.628937,951,532,-13149
17.644562,951,571,-13163
17.660187,942,530,-13142
17.675812,926,498,-13129
17.691437,901,599,-13135
17.707062,917,651,-13169
17.722687,883,589,-13147
17.738312,851,594,-13138
17.753937,882,633,-13188
17.769562,833,655,-13124
17.785187,817,649,-13111
17.800812,855,655,-13176
17.816437,792,719,-13108
17.832062,803,728,-13133
17.847687,844,689,-13179
17.863312,773,726,-13101
17.878937,783,778,-13172
17.894562,789,737,-13169
17.910187,692,692,-13070
17.925812,715,737,-13181
17.941437,723,778,-13149
17.957062,658,767,-13058
17.972687,719,771,-13195
17.988312,723,807,-13165
18.003937,669,812,-13069
18.019562,676,787,-13167
18.035187,655,807,-13174
18.050812,614,828,-13092
18.066437,583,808,-13149
18.082062,558,780,-13190
18.097687,524,789,-13099
18.113312,541,830,-13120
18.128937,542,815,-13197
18.144562,471,821,-13115
18.160187,473,883,-13113
18.175812,521,853,-13204
18.191437,466,783,-13131
18.207062,403,833,-13083
18.222687,424,894,-13192
18.238312,412,823,-13160
18.253937,360,742,-13076
18.269562,373,801,-13179
18.285187,355,849,-13160
18.300812,305,765,-13078
18.316437,330,769,-13178
18.332062,323,853,-13167
18.347687,287,835,-13120
18.363312,294,790,-13167
18.378937,282,805,-13136
18.394562,248,839,-13122
18.410187,212,789,-13136
18.425812,216,708,-13147
18.441437,226,765,-13163
18.457062,189,799,-13145
18.472687,158,723,-13135
18.488312,135,707,-13129
18.503937,112,740,-13149
18.519562,110,737,-13145
18.535187,110,664,-13126
18.550812,101,649,-13183
18.566437,108,735,-13160
18.582062,112,671,-13106
18.597687,89,589,-13190
18.613312,67,660,-13167
18.628937,46,630,-13090
18.644562,35,562,-13179
18.660187,28,583,-13154
18.675812,-8,578,-13097
18.691437,-20,585,-13226
18.707062,3,544,-13167
18.722687,-4,485,-13076
18.738312,-17,548,-13201
18.753937,-2,508,-13167
18.769562,-4,407,-13117
18.785187,-17,492,-13213
18.800812,-22,503,-13176
18.816437,-29,376,-13129
18.832062,-50,378,-13153
18.847687,-65,408,-13156
18.863312,-50,366,-13161
18.878937,-31,301,-13131
18.894562,-50,330,-13170
18.910187,-59,410,-13199
18.925812,-8,307,-13094
18.941437,-13,228,-13153
18.957062,-50,330,-13222
18.972687,-11,291,-13094
18.988312,-27,207,-13178
19.003937,-84,269,-13213
19.019562,-34,249,-13049
19.035187,-11,144,-13188
19.050812,-38,139,-13233
19.066437,-4,174,-13072
19.082062,3,162,-13181
19.097687,-6,114,-13199
19.113312,7,99,-13081
19.128937,-9,151,-13167
19.144562,16,116,-13192
19.160187,42,46,-13142
19.175812,35,66,-13188
19.191437,62,49,-13186
19.207062,67,-24,-13156
19.222687,55,-25,-13149
19.238312,94,19,-13167
19.253937,124,-2,-13185
19.269562,135,-31,-13136
19.285187,137,-24,-13161
19.300812,148,-58,-13213
19.316437,205,-117,-13142
19.332062,178,-100,-13158
19.347687,149,-56,-13190
19.363312,260,-108,-13108
19.378937,258,-168,-13165
19.394562,232,-117,-13201
19.410187,316,-95,-13145
19.425812,308,-181,-13204
19.441437,289,-172,-13174
19.457062,305,-92,-13124
19.472687,298,-129,-13186
19.488312,360,-174,-13149
19.503937,391,-140,-13165
19.519562,385,-150,-13197
19.535187,457,-200,-13131
19.550812,432,-193,-13186
19.566437,430,-172,-13170
19.582062,505,-190,-13104
19.597687,458,-192,-13203
19.613312,514,-152,-13131
19.628937,578,-149,-13120
19.644562,516,-206,-13260
19.660187,599,-184,-13119
19.675812,626,-158,-13120
19.691437,573,-220,-13228
19.707062,664,-163,-13108
19.722687,655,-125,-13188
19.738312,669,-197,-13213
19.753937,760,-150,-13103
19.769562,692,-117,-13211
19.785187,735,-140,-13174
19.800812,798,-136,-13144
19.816437,735,-154,-13217
19.832062,780,-109,-13095
19.847687,789,-127,-13176
19.863312,789,-165,-13211
19.878937,878,-54,-13072
19.894562,857,-92,-13213
19.910187,873,-147,-13181
19.925812,930,-22,-13101
19.941437,887,-75,-13236
19.957062,915,-104,-13113
19.972687,940,16,-13124
19.988312,939,-20,-13242
20.003937,996,-18,-13106
20.019562,982,30,-13161
20.035187,990,8,-13195
20.050812,1024,10,-13113
20.066437,994,24,-13174
20.082062,1014,91,-13161
20.097687,1044,96,-13181
20.113312,1039,76,-13179
20.128937,1040,180,-13095
20.144684,1039,164,-13179
20.160309,1044,116,-13181
20.175934,1082,198,-13113
20.191559,1107,180,-13217
20.207184,1096,158,-13174
20.222809,1089,273,-13081
20.238434,1098,267,-13201
20.254059,1099,223,-13170
20.269684,1092,319,-13088
20.285309,1112,317,-13203
20.300934,1108,280,-13181
20.316559,1080,391,-13097
20.332184,1085,417,-13156
20.347809,1078,358,-13147
20.363434,1085,405,-13111
20.379059,1112,462,-13167
20.394684,1119,424,-13176
20.410309,1114,414,-13133
20.425934,1076,496,-13129
20.441559,1046,528,-13154
20.457184,1039,498,-13142
20.472809,1037,551,-13133
20.488434,1053,569,-13176
20.504059,1049,537,-13158
20.519684,1039,615,-13154
20.535309,1058,635,-13174
20.550934,1035,580,-13122
20.566559,1007,633,-13153
20.582184,999,674,-13144
20.597809,967,646,-13104
20.613434,978,673,-13208
20.629059,937,699,-13165
20.644684,887,690,-13108
20.660309,933,710,-13190
20.675934,887,746,-13110
20.691559,842,753,-13083
20.707184,876,764,-13188
20.722809,839,801,-13120
20.738434,832,783,-13110
20.754059,853,771,-13192
20.769684,794,828,-13122
20.785309,774,812,-13115
20.800934,783,792,-13172
20.816559,723,849,-13115
20.832184,703,830,-13117
20.847809,708,807,-13179
20.863434,689,871,-13158
20.879059,665,849,-13133
20.894684,617,810,-13147
20.910309,624,853,-13144
20.925934,614,830,-13101
20.941559,562,771,-13119
20.957184,574,826,-13174
20.972809,542,867,-13124
20.988434,498,808,-13129
21.004059,499,833,-13186
21.019684,448,878,-13103
21.035309,430,798,-13104
21.050934,453,787,-13185
21.066559,405,839,-13124
21.082184,383,799,-13133
21.097809,399,808,-13185
21.113434,349,849,-13119
21.129059,321,789,-13144
21.144562,319,755,-13153
21.160187,298,783,-13099
21.175812,299,740,-13176
21.191437,274,707,-13183
21.207062,241,755,-13138
21.222687,242,733,-13176
21.238312,217,667,-13149
21.253937,185,703,-13138
21.269562,180,710,-13142
21.285187,191,623,-13115
21.300812,189,664,-13167
21.316437,160,685,-13158
21.332062,141,567,-13136
21.347687,117,596,-13172
21.363312,94,607,-13131
21.378937,105,505,-13144
21.394562,96,539,-13172
21.410187,101,551,-13145
21.425812,112,460,-13167
21.441437,62,464,-13147
21.457062,57,494,-13138
21.472687,73,442,-13178
21.488312,51,423,-13136
21.503937,57,439,-13133
21.519562,73,391,-13199
21.535187,58,351,-13165
21.550812,48,374,-13140
21.566437,62,337,-13194
21.582062,62,280,-13170
21.597687,64,307,-13145
21.613312,73,274,-13170
21.628937,67,214,-13170
21.644562,67,264,-13153
21.660187,98,233,-13136
21.675812,105,146,-13192
21.691437,89,192,-13178
21.707062,123,166,-13101
21.722687,105,78,-13203
21.738312,91,137,-13201
21.753937,169,128,-13078
21.769562,132,67,-13188
21.785187,108,114,-13197
21.800812,203,55,-13079
21.816437,185,-27,-13178
21.832062,171,42,-13203
21.847687,216,32,-13124
21.863312,201,-67,-13151
21.878937,216,-49,-13169
21.894562,233,-11,-13170
21.910187,262,-90,-13136
21.925812,299,-118,-13149
21.941437,267,-70,-13220
21.957062,312,-109,-13115
21.972687,342,-125,-13129
21.988312,312,-92,-13269
22.003937,407,-136,-13119
22.019562,433,-163,-13124
22.035187,387,-136,-13285
22.050812,467,-159,-13129
22.066437,469,-158,-13108
22.082062,430,-131,-13235
22.097687,521,-170,-13140
22.113312,537,-172,-13153
22.128937,532,-145,-13217
22.144562,592,-167,-13151
22.160187,569,-168,-13172
22.175812,610,-159,-13165
22.191437,662,-188,-13165
22.207062,628,-190,-13199
22.222687,698,-149,-13101
22.238312,715,-165,-13181
22.253937,699,-177,-13210
22.269562,780,-129,-13045
22.285187,760,-181,-13206
22.300812,762,-227,-13238
22.316437,837,-109,-13047
22.332062,808,-111,-13195
22.347687,849,-154,-13201
22.363312,894,-77,-13103
22.378937,864,-143,-13211
22.394562,914,-143,-13133
22.410187,921,-49,-13147
22.425812,930,-140,-13210
22.441437,1003,-88,-13099
22.457062,992,1,-13211
22.472687,987,-79,-13185
22.488312,1017,-2,-13058
22.503937,1010,3,-13231
22.519562,1040,-47,-13145
22.535187,1057,66,-13086
22.550812,1060,26,-13288
22.566437,1114,24,-13153
22.582062,1112,130,-13092
22.597687,1105,89,-13206
22.613312,1132,99,-13135
22.628937,1130,130,-13136
22.644562,1142,124,-13169
22.660187,1153,174,-13188
22.675812,1160,199,-13158
22.691437,1178,239,-13103
22.707062,1180,232,-13199
22.722687,1167,237,-13120
22.738312,1174,285,-13069
22.753937,1185,257,-13228
22.769562,1180,321,-13136
22.785187,1217,353,-13110
22.800812,1223,301,-13228
22.816437,1167,378,-13108
22.832062,1169,387,-13101
22.847687,1182,374,-13215
22.863312,1169,473,-13145
22.878937,1165,473,-13131
22.894562,1162,487,-13172
22.910187,1158,521,-13122
22.925812,1153,478,-13144
22.941437,1155,524,-13178
22.957062,1146,589,-13136
22.972687,1126,596,-13145
22.988312,1108,624,-13142
23.003937,1089,610,-13129
23.019562,1101,601,-13142
23.035187,1085,689,-13115
23.050812,1067,698,-13153
23.066437,1085,657,-13161
23.082062,1040,714,-13090
23.097687,1024,714,-13161
23.113312,1021,717,-13179
23.128937,980,780,-13119
23.144684,996,753,-13163
23.160309,958,762,-13138
23.175934,935,774,-13136
23.191559,940,735,-13167
23.207184,873,807,-13120
23.222809,889,844,-13161
23.238434,890,805,-13153
23.254059,817,833,-13097
23.269684,815,830,-13158
23.285309,773,812,-13126
23.300934,723,869,-13111
23.316559,739,874,-13178
23.332184,708,844,-13108
23.347809,685,862,-13126
23.363434,682,857,-13199
23.379059,626,865,-13099
23.394684,608,885,-13099
23.410309,632,842,-13185
23.425934,607,840,-13136
23.441559,564,855,-13108
23.457184,532,819,-13144
23.472809,519,848,-13144
23.488434,508,851,-13122
23.504059,482,796,-13140
23.519684,466,810,-13165
23.535309,442,778,-13126
23.550934,407,732,-13124
23.566559,401,814,-13195
23.582184,396,805,-13147
23.597809,364,717,-13104
23.613434,358,764,-13201
23.629059,321,723,-13120
23.644684,271,657,-13049
23.660309,289,751,-13213
23.675934,296,682,-13181
23.691559,271,601,-13113
23.707184,249,687,-13199
23.722809,226,598,-13106
23.738434,203,558,-13088
23.754059,199,639,-13188
23.769684,212,558,-13161
23.785309,216,542,-13186
23.800934,183,541,-13158
23.816559,157,451,-13103
23.832184,155,496,-13149
23.847809,153,487,-13131
23.863434,148,426,-13156
23.879059,149,466,-13161
23.894684,149,401,-13101
23.910309,133,353,-13153
23.925934,133,392,-13138
23.941559,149,335,-13122
23.957184,141,326,-13208
23.972809,157,335,-13161
23.988434,166,242,-13126
24.004059,114,235,-13185
24.019684,146,266,-13111
24.035309,212,187,-13117
24.050934,160,201,-13256
24.066559,174,203,-13156
24.082184,226,85,-13088
24.097809,166,132,-13215
24.113434,212,151,-13142
24.129059,257,62,-13110
24.144562,205,107,-13220
24.160187,255,58,-13145
24.175812,262,-38,-13126
24.191437,249,26,-13203
24.207062,333,14,-13169
24.222687,324,-11,-13153
24.238312,330,7,-13158
24.253937,364,-70,-13183
24.269562,337,-61,-13142
24.285187,385,-36,-13108
24.300812,382,-92,-13249
24.316437,394,-75,-13185
24.332062,503,-84,-13085
24.347687,449,-133,-13260
24.363312,474,-115,-13169
24.378937,567,-115,-13074
24.394562,473,-125,-13258
24.410187,566,-117,-13149
24.425812,646,-170,-13117
24.441437,537,-193,-13258
24.457062,644,-140,-13117
24.472687,674,-138,-13151
24.488312,623,-156,-13222
24.503937,748,-174,-13095
24.519562,690,-199,-13183
24.535187,690,-147,-13161
24.550812,839,-113,-13090
24.566437,760,-152,-13244
24.582062,808,-140,-13161
24.597687,889,-158,-13135
24.613312,815,-202,-13224
24.628937,885,-129,-13085
24.644562,889,-127,-13160
24.660187,892,-158,-13208
24.675812,1001,-86,-13106
24.691437,962,-122,-13245
24.707062,978,-102,-13167
24.722687,1028,-20,-13060
24.738312,990,-83,-13217
24.753937,1058,-52,-13140
24.769562,1083,-25,-13140
24.785187,1074,-79,-13226
24.800812,1144,16,-13111
24.816437,1123,42,-13169
24.832062,1101,21,-13158
24.847687,1160,73,-13103
24.863312,1173,35,-13204
24.878937,1182,91,-13122
24.894562,1198,141,-13140
24.910187,1194,98,-13201
24.925812,1219,182,-13092
24.941437,1230,149,-13183
24.957062,1235,126,-13183
24.972687,1258,241,-13092
24.988312,1246,205,-13211
25.003937,1237,244,-13160
25.019562,1256,335,-13085
25.035187,1258,274,-13169
25.050812,1256,303,-13138
25.066437,1274,348,-13154
25.082062,1276,344,-13178
25.097687,1264,398,-13110
25.113312,1267,408,-13160
25.128937,1246,432,-13156
25.144562,1233,489,-13083
25.160187,1285,487,-13156
25.175812,1283,480,-13179
25.191437,1246,501,-13126
25.207062,1251,548,-13163
25.222687,1208,589,-13167
25.238312,1174,603,-13124
25.253937,1189,633,-13119
25.269562,1171,628,-13120
25.285187,1183,623,-13158
25.300812,1207,644,-13183
25.316437,1157,674,-13179
25.332062,1132,710,-13170
25.347687,1098,696,-13099
25.363312,1049,710,-13099
25.378937,1078,755,-13160
25.394562,1057,762,-13104
25.410187,1028,787,-13129
25.425812,1051,780,-13183
25.441437,987,755,-13103
25.457062,958,805,-13138
25.472687,953,833,-13169
25.488312,896,817,-13094
25.503937,921,830,-13147
25.519562,896,826,-13145
25.535187,839,844,-13099
25.550812,862,874,-13178
25.566437,821,853,-13136
25.582062,767,864,-13097
25.597687,765,858,-13176
25.613312,717,844,-13103
25.628937,701,887,-13092
25.644562,692,882,-13188
25.660187,639,860,-13117
25.675812,660,846,-13131
25.691437,649,810,-13195
25.707062,569,848,-13108
25.722687,548,855,-13113
25.738312,553,826,-13165
25.753937,546,835,-13133
25.769562,501,783,-13131
25.785187,482,783,-13170
25.800812,489,817,-13151
25.816437,444,749,-13097
25.832062,416,739,-13161
25.847687,408,742,-13186
25.863312,364,676,-13088
25.878937,342,699,-13158
25.894562,348,724,-13199
25.910187,349,680,-13074
25.925812,339,651,-13156
25.941437,301,624,-13208
25.957062,271,608,-13078
25.972687,267,596,-13135
25.988312,266,592,-13203
26.003937,260,592,-13124
26.019562,248,535,-13147
26.035187,232,508,-13203
26.050812,232,482,-13140
26.066437,221,424,-13113
26.082062,205,464,-13178
26.097687,226,446,-13170
26.113312,233,369,-13135
26.128937,216,392,-13172
26.144562,210,362,-13167
26.160187,205,321,-13111
26.175812,228,312,-13138
26.191437,239,260,-13186
26.207062,224,274,-13144
26.222687,233,237,-13145
26.238312,226,180,-13197
26.253937,257,194,-13142
26.269562,291,126,-13154
26.285187,266,124,-13211
26.300812,301,149,-13115
26.316437,294,78,-13149
26.332062,246,87,-13181
26.347687,316,51,-13051
26.363312,326,5,-13176
26.378937,310,55,-13238
26.394562,389,16,-13079
26.410187,367,-15,-13201
26.425812,387,-24,-13213
26.441437,449,-72,-13081
26.457062,389,-29,-13222
26.472687,444,-33,-13194
26.488312,510,-84,-13095
26.503937,466,-79,-13199
26.519562,530,-117,-13145
26.535187,566,-118,-13136
26.550812,557,-108,-13204
26.566437,608,-140,-13144
26.582062,591,-122,-13178
26.597687,642,-154,-13174
26.613312,696,-179,-13149
26.628937,667,-147,-13199
26.644562,739,-175,-13122
26.660187,732,-184,-13190
26.675812,719,-193,-13224
26.691437,817,-193,-13081
26.707062,789,-152,-13211
26.722687,807,-154,-13213
26.738312,899,-118,-13094
26.753937,862,-142,-13231
26.769562,901,-168,-13167
26.785187,949,-99,-13101
26.800812,926,-140,-13208
26.816437,994,-131,-13140
26.832062,1007,-83,-13169
26.847687,1012,-133,-13181
26.863312,1076,-70,-13117
26.878937,1058,-56,-13226
26.894562,1078,-74,-13122
26.910187,1123,7,-13072
26.925812,1123,-58,-13267
26.941437,1174,-52,-13133
26.957062,1199,42,-13085
26.972687,1189,8,-13220
26.988312,1221,58,-13106
27.003937,1230,64,-13128
27.019562,1231,41,-13195
27.035187,1260,137,-13138
27.050812,1262,116,-13183
27.066437,1264,119,-13160
27.082062,1290,182,-13142
27.097687,1292,169,-13145
27.113312,1289,224,-13128
27.128937,1323,235,-13199
27.144562,1337,241,-13129
27.160187,1323,308,-13104
27.175812,1319,273,-13211
27.191437,1315,303,-13122
27.207062,1346,367,-13136
27.222687,1344,357,-13213
27.238312,1303,399,-13120
27.253937,1333,417,-13138
27.269562,1326,446,-13181
27.285187,1294,483,-13135
27.300812,1315,496,-13147
27.316437,1312,519,-13181
27.332062,1289,521,-13145
27.347687,1290,573,-13126
27.363312,1298,594,-13172
27.378937,1260,607,-13145
27.394562,1248,649,-13136
27.410187,1258,628,-13160
27.425812,1212,657,-13126
27.441437,1235,667,-13163
27.457062,1224,678,-13147
27.472687,1157,728,-13119
27.488312,1187,708,-13169
27.503937,1130,740,-13101
27.519562,1101,789,-13124
27.535187,1151,792,-13165
27.550812,1064,799,-13092
27.566437,1055,790,-13179
27.582062,1049,819,-13167
27.597687,964,844,-13103
27.613312,1008,853,-13190
27.628937,946,851,-13138
27.644562,883,830,-13115
27.660187,905,860,-13153
27.675812,824,867,-13119
27.691437,849,865,-13151
27.707062,833,858,-13110
27.722687,799,842,-13142
27.738312,858,905,-13188
27.753937,769,885,-13085
27.769562,771,876,-13181
27.785187,764,903,-13181
27.800812,660,769,-13078
27.816437,694,801,-13201
27.832062,608,842,-13133
27.847687,555,767,-13067
27.863312,585,837,-13195
27.878937,496,780,-13128
27.894562,508,744,-13119
27.910187,539,823,-13181
27.925812,485,755,-13119
27.941437,491,746,-13147
27.957062,473,730,-13145
27.972687,455,689,-13131
27.988312,449,723,-13169
28.003937,382,680,-13144
28.019562,355,690,-13144
28.035187,349,646,-13149
28.050812,341,592,-13176
28.066437,332,637,-13144
28.082062,299,578,-13101
28.097687,301,605,-13188
28.113312,308,576,-13135
28.128937,289,507,-13113
28.144562,283,544,-13197
28.160187,298,462,-13136
28.175812,292,451,-13131
28.191437,280,433,-13149
28.207062,269,351,-13149
28.222687,273,394,-13142
28.238312,285,326,-13119
28.253937,255,287,-13206
28.269562,287,298,-13110
28.285187,307,223,-13106
28.300812,249,285,-13295
28.316437,308,253,-13103
28.332062,317,174,-13108
28.347687,283,214,-13278
28.363312,371,117,-13083
28.378937,339,91,-13161
28.394562,330,142,-13238
28.410187,399,69,-13101
28.425812,330,62,-13201
28.441437,353,67,-13160
28.457062,376,17,-13135
28.472687,341,30,-13210
28.488312,442,28,-13111
28.503937,442,-13,-13201
28.519562,448,-17,-13203
28.535187,548,-29,-13086
28.550812,517,-79,-13224
28.566437,557,-102,-13165
28.582062,615,-117,-13092
28.597687,564,-142,-13228
28.613312,633,-120,-13158
28.628937,680,-120,-13133
28.644562,619,-122,-13210
28.660187,692,-117,-13144
28.675812,719,-167,-13167
28.691437,680,-172,-13167
28.707062,758,-149,-13103
28.722687,778,-150,-13195
28.738312,805,-145,-13181
28.753937,873,-143,-13128
28.769562,864,-150,-13213
28.785187,915,-158,-13145
28.800812,933,-142,-13108
28.816437,917,-140,-13195
28.832062,978,-142,-13140
28.847687,994,-115,-13142
28.863312,1005,-100,-13197
28.878937,1057,-99,-13138
28.894562,1073,-108,-13154
28.910187,1089,-106,-13194
28.925812,1139,-97,-13169
28.941437,1153,-102,-13169
28.957062,1160,-43,-13144
28.972687,1189,-11,-13161
28.988312,1205,-40,-13183
29.003937,1230,33,-13117
29.019562,1219,60,-13158
29.035187,1239,-6,-13172
29.050812,1321,7,-13126
29.066437,1315,19,-13208
29.082062,1310,69,-13161
29.097687,1339,167,-13131
29.113312,1328,166,-13219
29.128937,1346,167,-13110
29.144562,1342,233,-13119
29.160187,1346,226,-13224
29.175812,1394,223,-13128
29.191437,1396,267,-13156
29.207062,1383,274,-13186
29.222687,1378,332,-13079
29.238312,1387,349,-13153
29.253937,1398,339,-13179
29.269562,1394,416,-13110
29.285187,1415,410,-13183
29.300812,1398,416,-13172
29.316437,1362,499,-13103
29.332062,1364,519,-13129
29.347687,1367,535,-13138
29.363312,1373,555,-13154
29.378937,1380,580,-13161
29.394562,1378,614,-13163
29.410187,1373,610,-13179
29.425812,1349,614,-13128
29.441437,1330,651,-13126
29.457062,1303,683,-13136
29.472687,1269,723,-13108
29.488312,1283,748,-13160
29.503937,1260,739,-13160
29.519562,1208,785,-13124
29.535187,1230,803,-13153
29.550812,1212,789,-13120
29.566437,1158,839,-13111
29.582062,1151,849,-13147
29.597687,1139,840,-13129
29.613312,1140,867,-13154
29.628937,1126,898,-13163
29.644562,1071,876,-13124
29.660187,1049,844,-13154
29.675812,1014,871,-13151
29.691437,942,908,-13094
29.707062,971,912,-13142
29.722687,976,892,-13160
29.738312,914,901,-13124
29.753937,915,919,-13167
29.769562,867,930,-13133
29.785187,833,914,-13126
29.800812,833,890,-13161
29.816437,755,887,-13101
29.832062,751,842,-13147
29.847687,748,849,-13172
29.863312,673,840,-13111
29.878937,692,824,-13176
29.894562,667,864,-13153
29.910187,624,833,-13101
29.925812,664,787,-13165
29.941437,619,762,-13124
29.957062,566,758,-13129
29.972687,578,792,-13186
29.988312,566,767,-13154
30.003937,535,705,-13181
30.019562,514,682,-13140
30.035187,505,648,-13094
30.050812,503,639,-13176
30.066437,491,626,-13147
30.082062,483,569,-13117
30.097687,474,601,-13203
30.113312,455,594,-13151
30.128937,444,521,-13088
30.144562,446,499,-13165
30.160187,467,449,-13140
30.175812,494,405,-13133
30.191437,471,414,-13219
30.207062,460,373,-13167
30.222687,478,326,-13094
30.238312,458,341,-13140
30.253937,480,314,-13179
30.269562,516,285,-13156
30.285187,519,266,-13142
30.300812,521,241,-13197
30.316437,519,239,-13185
30.332062,555,191,-13099
30.347687,580,142,-13163
30.363312,612,137,-13197
30.378937,682,112,-13103
30.394562,676,92,-13174
30.410187,682,66,-13206
30.425812,719,10,-13103
30.441437,680,12,-13154
30.457062,719,30,-13170
30.472687,792,-2,-13128
30.488312,774,-29,-13178
30.503937,842,-31,-13158
30.519562,890,-31,-13153
30.535187,901,-34,-13161
30.550812,994,-72,-13138
30.566437,1010,-100,-13197
30.582062,1026,-81,-13163
30.597687,1085,-59,-13113
30.613312,1069,-68,-13208
30.628937,1117,-74,-13147
30.644562,1169,-59,-13099
30.660187,1155,-75,-13217
30.675812,1237,-84,-13158
30.691437,1296,-56,-13135
30.707062,1298,-50,-13194
30.722687,1380,-42,-13120
30.738312,1417,-34,-13161
30.753937,1415,-29,-13163
30.769562,1464,14,-13113
30.785187,1460,-2,-13206
30.800812,1487,-2,-13136
30.816437,1519,69,-13120
30.832062,1530,49,-13222
30.847687,1599,58,-13101
30.863312,1612,103,-13124
30.878937,1615,94,-13195
30.894562,1680,189,-13081
30.910187,1719,241,-13144
30.925812,1740,212,-13195
30.941437,1742,266,-13117
30.957062,1737,274,-13140
30.972687,1746,266,-13144
30.988312,1742,308,-13144
31.003937,1758,341,-13160
31.019562,1764,433,-13124
31.035187,1774,485,-13145
31.050812,1799,467,-13133
31.066437,1790,524,-13094
31.082062,1799,555,-13156
31.097687,1808,566,-13138
31.113312,1799,633,-13110
31.128937,1796,667,-13179
31.144562,1762,676,-13142
31.160187,1742,683,-13120
31.175812,1740,676,-13163
31.191437,1706,724,-13117
31.207062,1710,769,-13126
31.222687,1730,776,-13145
31.238312,1705,833,-13115
31.253937,1690,878,-13153
31.269562,1655,887,-13133
31.285187,1605,898,-13106
31.300812,1590,896,-13156
31.316437,1544,899,-13122
31.332062,1508,901,-13108
31.347687,1508,910,-13163
31.363312,1465,944,-13136
31.378937,1435,962,-13136
31.394562,1415,971,-13158
31.410187,1355,980,-13111
31.425812,1356,948,-13135
31.441437,1348,928,-13154
31.457062,1271,955,-13097
31.472687,1244,974,-13128
31.488312,1230,949,-13179
31.503937,1203,890,-13124
31.519562,1171,899,-13085
31.535187,1148,915,-13128
31.550812,1124,869,-13104
31.566437,1062,837,-13088
31.582062,1039,855,-13174
31.597687,1030,873,-13145
31.613312,1005,823,-13092
31.628937,999,776,-13161
31.644562,969,765,-13138
31.660187,965,712,-13099
31.675812,974,648,-13176
31.691437,964,632,-13176
31.707062,957,635,-13097
31.722687,923,619,-13156
31.738312,894,603,-13178
31.753937,869,560,-13069
31.769562,853,537,-13131
31.785187,908,505,-13203
31.800812,953,408,-13129
31.816437,944,416,-13147
31.832062,965,407,-13138
31.847687,989,312,-13111
31.863312,974,314,-13172
31.878937,998,292,-13161
31.894562,1019,223,-13161
31.910187,1026,210,-13153
31.925812,1064,157,-13120
31.941437,1058,101,-13192
31.957062,1092,96,-13145
31.972687,1165,74,-13085
31.988312,1167,80,-13211
32.003937,1239,71,-13174
32.019562,1303,48,-13104
32.035187,1264,41,-13224
32.050812,1324,7,-13174
32.066437,1369,-17,-13126
32.082062,1353,-22,-13192
32.097687,1455,-45,-13120
32.113312,1492,-61,-13153
32.128937,1512,-52,-13172
32.144562,1605,-18,-13104
32.160187,1606,-27,-13203
32.175812,1674,-40,-13133
32.191437,1760,14,-13076
32.207062,1714,-13,-13272
32.222687,1774,-36,-13153
32.238312,1840,42,-13060
32.253937,1812,23,-13247
32.269562,1894,14,-13122
32.285187,1937,69,-13072
32.300812,1937,39,-13224
32.316437,2010,87,-13145
32.332062,2030,158,-13128
32.347687,2035,199,-13158
32.363312,2078,269,-13161
32.378937,2092,244,-13149
32.394562,2112,294,-13081
32.410187,2156,319,-13215
32.425812,2169,264,-13178
32.441437,2174,392,-13058
32.457062,2203,421,-13245
32.472687,2192,407,-13142
32.488312,2180,530,-13033
32.503937,2196,507,-13238
32.519562,2171,512,-13142
32.535187,2167,621,-13070
32.550812,2180,640,-13206
32.566437,2151,690,-13144
32.582062,2155,726,-13088
32.597687,2164,726,-13129
32.613312,2162,785,-13142
32.628937,2140,807,-13135
32.644562,2099,835,-13135
32.660187,2099,880,-13174
32.675812,2053,860,-13136
32.691437,1969,865,-13086
32.707062,1955,926,-13138
32.722687,1928,940,-13128
32.738312,1906,948,-13110
32.753937,1919,998,-13169
32.769562,1851,985,-13163
32.785187,1812,949,-13151
32.800812,1815,1007,-13165
32.816437,1735,1055,-13119
32.832062,1673,1023,-13111
32.847687,1671,983,-13145
32.863312,1640,973,-13140
32.878937,1590,965,-13160
32.894562,1551,983,-13142
32.910187,1519,989,-13097
32.925812,1499,935,-13158
32.941437,1460,907,-13151
32.957062,1421,901,-13086
32.972687,1406,873,-13147
32.988312,1367,860,-13140
33.003937,1340,842,-13104
33.019562,1344,792,-13167
33.035187,1340,719,-13138
33.050812,1326,673,-13110
33.066437,1298,651,-13153
33.082062,1276,621,-13129
33.097687,1265,608,-13122
33.113312,1251,589,-13149
33.128937,1256,521,-13128
33.144562,1260,491,-13124
33.160187,1273,469,-13135
33.175812,1319,380,-13136
33.191437,1319,358,-13181
33.207062,1317,369,-13169
33.222687,1360,291,-13124
33.238312,1373,249,-13151
33.253937,1381,232,-13140
33.269562,1412,180,-13142
33.285187,1449,160,-13169
33.300812,1485,142,-13151
33.316437,1489,135,-13163
33.332062,1548,108,-13117
33.347687,1623,55,-13113
33.363312,1624,55,-13213
33.378937,1706,67,-13129
33.394562,1776,60,-13122
33.410187,1760,24,-13236
33.425812,1876,-17,-13111
33.441437,1899,-17,-13131
33.457062,1851,-34,-13213
33.472687,1985,-13,-13067
33.488312,2012,10,-13163
33.503937,2022,-8,-13213
33.519562,2122,55,-13079
33.535187,2117,64,-13201
33.550812,2169,35,-13174
33.566437,2224,94,-13088
33.582062,2215,96,-13197
33.597687,2289,116,-13122
33.613312,2342,185,-13140
33.628937,2362,203,-13224
33.644562,2406,255,-13108
33.660187,2417,253,-13138
33.675812,2430,253,-13145
33.691437,2471,321,-13124
33.707062,2480,303,-13201
33.722687,2476,403,-13133
33.738312,2497,514,-13149
33.753937,2485,467,-13142
33.769562,2474,528,-13044
33.785187,2510,558,-13145
33.800812,2519,549,-13170
33.816437,2526,658,-13149
33.832062,2535,701,-13208
33.847687,2485,730,-13138
33.863312,2449,790,-13085
33.878937,2435,778,-13092
33.894562,2405,824,-13079
33.910187,2414,907,-13149
33.925812,2421,903,-13197
33.941437,2362,915,-13160
33.957062,2319,942,-13142
33.972687,2280,953,-13117
33.988312,2217,998,-13099
34.003937,2206,1057,-13131
34.019562,2183,1055,-13133
34.035187,2140,1014,-13138
34.050812,2128,1014,-13186
34.066437,2049,1037,-13147
34.082062,1967,1046,-13094
34.097687,1960,1051,-13111
34.113312,1924,1024,-13111
34.128937,1878,990,-13111
34.144562,1853,999,-13149
34.160187,1798,998,-13172
34.175812,1764,974,-13167
34.191437,1744,946,-13133
34.207062,1699,885,-13136
34.222687,1671,862,-13128
34.238312,1644,835,-13078
34.253937,1614,794,-13165
34.269562,1614,824,-13174
34.285187,1610,767,-13081
34.300812,1599,685,-13186
34.316437,1573,678,-13154
34.332062,1558,592,-13042
34.347687,1556,541,-13179
34.363312,1560,558,-13178
34.378937,1578,510,-13115
34.394562,1569,482,-13190
34.410187,1587,446,-13136
34.425812,1623,346,-13097
34.441437,1628,305,-13151
34.457062,1669,305,-13153
34.472687,1696,291,-13178
34.488312,1710,237,-13158
34.503937,1737,167,-13115
34.519562,1740,153,-13174
34.535187,1805,139,-13158
34.550812,1905,121,-13144
34.566437,1922,105,-13236
34.582062,1960,62,-13167
34.597687,2005,46,-13106
34.613312,2008,35,-13203
34.628937,2072,32,-13145
34.644562,2133,51,-13083
34.660187,2171,39,-13195
34.675812,2255,26,-13208
34.691437,2297,26,-13140
34.707062,2319,35,-13142
34.722687,2364,83,-13151
34.738312,2396,92,-13133
34.753937,2456,87,-13104
34.769562,2497,126,-13179
34.785187,2521,117,-13203
34.800812,2597,164,-13095
34.816437,2608,239,-13170
34.832062,2615,233,-13179
34.847687,2676,298,-13063
34.863312,2694,319,-13181
34.878937,2721,294,-13203
34.894562,2740,387,-13106
34.910187,2744,451,-13174
34.925812,2771,485,-13153
34.941437,2787,553,-13097
34.957062,2778,580,-13147
34.972687,2756,585,-13138
34.988312,2769,632,-13120
35.003937,2780,690,-13153
35.019562,2751,733,-13161
35.035187,2733,789,-13138
35.050812,2717,812,-13117
35.066437,2708,808,-13133
35.082062,2674,857,-13128
35.097687,2615,930,-13129
35.113312,2587,953,-13161
35.128937,2563,976,-13106
35.144562,2512,987,-13097
35.160187,2469,990,-13154
35.175812,2435,1039,-13113
35.191437,2408,1053,-13120
35.207062,2389,1067,-13179
35.222687,2322,1078,-13126
35.238312,2265,1048,-13113
35.253937,2226,1037,-13154
35.269562,2146,1042,-13085
35.285187,2128,1044,-13103
35.300812,2135,1032,-13217
35.316437,2047,994,-13153
35.332062,1987,976,-13097
35.347687,1985,978,-13160
35.363312,1930,946,-13117
35.378937,1883,915,-13074
35.394562,1883,873,-13169
35.410187,1860,844,-13197
35.425812,1835,824,-13110
35.441437,1819,751,-13131
35.457062,1794,723,-13192
35.472687,1794,680,-13081
35.488312,1805,582,-13095
35.503937,1789,566,-13238
35.519562,1805,533,-13120
35.535187,1830,446,-13085
35.550812,1801,457,-13235
35.566437,1815,439,-13092
35.582062,1844,339,-13058
35.597687,1842,323,-13251
35.613312,1944,283,-13133
35.628937,1987,224,-13078
35.644562,1930,241,-13226
35.660187,2005,192,-13122
35.675812,2049,132,-13079
35.691437,2035,137,-13186
35.707062,2144,105,-13138
35.722687,2201,89,-13160
35.738312,2215,94,-13215
35.753937,2292,67,-13149
35.769562,2310,80,-13144
35.785187,2351,73,-13138
35.800812,2410,39,-13151
35.816437,2440,51,-13190
35.832062,2551,92,-13108
35.847687,2603,130,-13153
35.863312,2613,119,-13233
35.878937,2708,121,-13115
35.894562,2696,132,-13122
35.910187,2687,98,-13149
35.925812,2785,164,-13078
35.941437,2810,226,-13172
35.957062,2856,251,-13174
35.972687,2912,360,-13117
35.988312,2896,353,-13178
36.003937,2905,351,-13094
36.019562,2931,442,-13076
36.035187,2949,448,-13167
36.050812,2974,519,-13170
36.066437,3005,592,-13195
36.082062,2980,614,-13092
36.097687,2944,687,-13036
36.113312,2944,687,-13126
36.128937,2928,708,-13097
36.144562,2958,792,-13156
36.160187,2960,823,-13222
36.175812,2894,855,-13142
36.191437,2856,878,-13119
36.207062,2765,908,-13090
36.222687,2733,980,-13074
36.238312,2771,1040,-13126
36.253937,2730,1060,-13165
36.269562,2697,1015,-13192
36.285187,2651,994,-13147
36.300812,2576,1053,-13113
36.316437,2537,1107,-13135
36.332062,2467,1076,-13081
36.347687,2422,1062,-13103
36.363312,2403,1080,-13183
36.378937,2347,1053,-13129
36.394562,2312,1087,-13106
36.410187,2278,1096,-13158
36.425812,2219,1019,-13126
36.441437,2164,969,-13092
36.457062,2133,926,-13140
36.472687,2103,926,-13138
36.488312,2071,928,-13095
36.503937,2074,869,-13154
36.519562,2053,839,-13179
36.535187,2015,765,-13111
36.550812,1999,683,-13122
36.566437,1974,685,-13144
36.582062,1962,642,-13113
36.597687,1969,601,-13136
36.613312,1971,573,-13192
36.628937,1981,516,-13138
36.644562,2022,464,-13065
36.660187,2037,385,-13160
36.675812,2035,349,-13179
36.691437,2087,335,-13094
36.707062,2092,291,-13210
36.722687,2099,274,-13188
36.738312,2183,217,-13029
36.753937,2165,149,-13190
36.769562,2206,157,-13208
36.785187,2358,144,-13078
36.800812,2344,105,-13231
36.816437,2378,96,-13176
36.832062,2467,83,-13051
36.847687,2431,66,-13194
36.863312,2505,87,-13126
36.878937,2615,98,-13070
36.894562,2642,73,-13219
36.910187,2735,73,-13203
36.925812,2780,80,-13147
36.941437,2771,101,-13122
36.957062,2828,148,-13110
36.972687,2867,142,-13167
36.988312,2913,149,-13149
37.003937,2958,203,-13160
37.019562,2978,257,-13160
37.035187,3033,341,-13088
37.050812,3081,373,-13144
37.066437,3090,362,-13133
37.082062,3110,398,-13092
37.097687,3128,401,-13194
37.113312,3144,455,-13165
37.128937,3146,585,-13101
37.144684,3115,635,-13124
37.160309,3112,667,-13085
37.175934,3140,701,-13106
37.191559,3146,698,-13174
37.207184,3126,751,-13174
37.222809,3104,828,-13167
37.238434,3062,873,-13144
37.254059,3006,933,-13081
37.269684,2958,946,-13045
37.285309,2938,948,-13099
37.300934,2946,990,-13172
37.316559,2913,1032,-13174
37.332184,2876,1073,-13188
37.347809,2835,1080,-13176
37.363434,2737,1078,-13078
37.379059,2671,1073,-13069
37.394684,2637,1074,-13111
37.410309,2592,1089,-13106
37.425934,2578,1076,-13176
37.441559,2546,1099,-13238
37.457184,2465,1099,-13145
37.472809,2394,1032,-13086
37.488434,2335,1019,-13115
37.504059,2283,976,-13061
37.519684,2265,899,-13094
37.535309,2280,933,-13219
37.550934,2264,928,-13178
37.566559,2201,896,-13145
37.582184,2142,892,-13133
37.597809,2119,776,-13053
37.613434,2117,714,-13106
37.629059,2131,694,-13167
37.644684,2137,635,-13169
37.660309,2133,630,-13176
37.675934,2147,557,-13128
37.691559,2126,485,-13110
37.707184,2142,455,-13086
37.722809,2212,373,-13122
37.738434,2214,351,-13242
37.754059,2267,316,-13170
37.769684,2312,242,-13129
37.785309,2242,237,-13192
37.800934,2290,212,-13060
37.816559,2349,196,-13097
37.832184,2367,203,-13236
37.847809,2544,166,-13088
37.863434,2594,112,-13160
37.879059,2530,76,-13294
37.894684,2633,92,-13056
37.910309,2665,96,-13078
37.925934,2649,49,-13217
37.941559,2785,66,-13067
37.957184,2860,94,-13163
37.972809,2890,105,-13265
37.988434,2974,182,-13092
38.004059,2992,205,-13104
38.019684,3001,171,-13153
38.035309,3040,178,-13099
38.050934,3079,198,-13138
38.066559,3153,260,-13174
38.082184,3206,353,-13149
38.097809,3228,426,-13117
38.113434,3249,426,-13151
38.129059,3247,387,-13124
38.144562,3242,432,-13051
38.160187,3281,482,-13179
38.175812,3285,546,-13194
38.191437,3254,707,-13076
38.207062,3281,758,-13156
38.222687,3256,721,-13099
38.238312,3212,762,-13015
38.253937,3258,798,-13192
38.269562,3235,865,-13215
38.285187,3197,958,-13140
38.300812,3192,965,-13169
38.316437,3087,976,-13072
38.332062,3012,994,-13024
38.347687,3030,1003,-13129
38.363312,3008,1074,-13144
38.378937,2983,1123,-13144
38.394562,2951,1096,-13208
38.410187,2860,1078,-13161
38.425812,2755,1080,-13040
38.441437,2687,1107,-13051
38.457062,2660,1130,-13111
38.472687,2638,1101,-13103
38.488312,2621,1067,-13170
38.503937,2590,1065,-13236
38.519562,2512,1082,-13113
38.535187,2422,1049,-13060
38.550812,2392,989,-13131
38.566437,2372,933,-13078
38.582062,2349,874,-13103
38.597687,2340,869,-13228
38.613312,2305,853,-13131
38.628937,2246,807,-13090
38.644562,2205,790,-13167
38.660187,2235,701,-13095
38.675812,2278,598,-13147
38.691437,2296,566,-13215
38.707062,2299,523,-13104
38.722687,2249,501,-13149
38.738312,2249,485,-13165
38.753937,2310,419,-13079
38.769562,2326,369,-13151
38.785187,2397,298,-13165
38.800812,2465,230,-13156
38.816437,2440,230,-13210
38.832062,2474,214,-13154
38.847687,2505,176,-13110
38.863312,2546,160,-13126
38.878937,2638,132,-13113
38.894562,2663,130,-13161
38.910187,2744,132,-13190
38.925812,2862,103,-13165
38.941437,2842,110,-13170
38.957062,2842,101,-13113
38.972687,2919,92,-13092
38.988312,2953,123,-13167
39.003937,3042,164,-13135
39.019562,3140,205,-13142
39.035187,3160,207,-13222
39.050812,3194,223,-13135
39.066437,3206,273,-13049
39.082062,3221,274,-13106
39.097687,3294,287,-13149
39.113312,3333,355,-13135
39.128937,3356,423,-13170
39.144562,3394,483,-13208
39.160187,3381,523,-13092
39.175812,3356,562,-13035
39.191437,3383,582,-13167
39.207062,3404,603,-13144
39.222687,3397,710,-13104
39.238312,3403,764,-13233
39.253937,3347,787,-13113
39.269562,3299,871,-13013
39.285187,3326,878,-13163
39.300812,3272,908,-13120
39.316437,3246,990,-13115
39.332062,3276,1014,-13213
39.347687,3183,1037,-13104
39.363312,3115,1064,-13094
39.378937,3092,1083,-13140
39.394562,3008,1112,-13069
39.410187,2981,1133,-13131
39.425812,2965,1139,-13165
39.441437,2883,1126,-13117
39.457062,2844,1126,-13179
39.472687,2781,1140,-13124
39.488312,2705,1115,-13045
39.503937,2687,1080,-13138
39.519562,2615,1051,-13131
39.535187,2585,1010,-13119
39.550812,2572,1010,-13172
39.566437,2471,1017,-13142
39.582062,2435,983,-13117
39.597687,2442,921,-13110
39.613312,2417,846,-13131
39.628937,2389,798,-13122
39.644562,2360,760,-13108
39.660187,2371,740,-13179
39.675812,2380,687,-13160
39.691437,2360,594,-13106
39.707062,2365,555,-13122
39.722687,2372,516,-13131
39.738312,2380,444,-13135
39.753937,2415,421,-13149
39.769562,2439,417,-13172
39.785187,2463,344,-13144
39.800812,2508,276,-13103
39.816437,2531,249,-13142
39.832062,2571,221,-13167
39.847687,2635,198,-13149
39.863312,2690,191,-13158
39.878937,2733,158,-13183
39.894562,2765,119,-13131
39.910187,2846,117,-13092
39.925812,2874,105,-13211
39.941437,2905,108,-13153
39.957062,3055,148,-13038
39.972687,3065,121,-13251
39.988312,3071,126,-13194
40.003937,3194,217,-12992
40.019562,3179,203,-13195
40.035187,3224,183,-13179
40.050812,3335,237,-13056
40.066437,3326,219,-13213
40.082062,3353,291,-13181
40.097687,3417,408,-13070
40.113312,3442,426,-13103
40.128937,3467,462,-13158
40.144562,3496,455,-13149
40.160187,3492,482,-13095
40.175812,3483,573,-13190
40.191437,3478,623,-13135
40.207062,3463,740,-13020
40.222687,3496,782,-13172
40.238312,3472,758,-13111
40.253937,3446,833,-13049
40.269562,3494,844,-13235
40.285187,3422,905,-13156
40.300812,3371,994,-13090
40.316437,3362,983,-13158
40.332062,3258,1019,-13061
40.347687,3222,1048,-13061
40.363312,3210,1065,-13153
40.378937,3174,1124,-13156
40.394562,3151,1158,-13161
40.410187,3072,1140,-13156
40.425812,2983,1107,-13113
40.441437,2903,1105,-13069
40.457062,2840,1119,-13058
40.472687,2831,1139,-13110
40.488312,2819,1139,-13179
40.503937,2781,1101,-13194
40.519562,2715,1069,-13154
40.535187,2642,1051,-13099
40.550812,2587,996,-13056
40.566437,2558,939,-13094
40.582062,2544,940,-13149
40.597687,2528,892,-13142
40.613312,2501,828,-13178
40.628937,2463,812,-13138
40.644562,2431,733,-13029
40.660187,2430,676,-13133
40.675812,2483,633,-13201
40.691437,2510,549,-13133
40.707062,2485,532,-13179
40.722687,2485,499,-13147
40.738312,2474,426,-13086
40.753937,2485,399,-13136
40.769562,2556,376,-13145
40.785187,2622,307,-13194
40.800812,2692,235,-13181
40.816437,2737,210,-13101
40.832062,2697,189,-13183
40.847687,2737,173,-13158
40.863312,2830,174,-13060
40.878937,2842,164,-13179
40.894562,2951,133,-13178
40.910187,3060,114,-13117
40.925812,3062,112,-13208
40.941437,3097,126,-13167
40.957062,3142,149,-13088
40.972687,3208,157,-13103
40.988312,3272,169,-13158
41.003937,3296,153,-13194
41.019562,3338,176,-13124
41.035187,3379,260,-13131
41.050812,3426,298,-13138
41.066437,3478,364,-13069
41.082062,3517,396,-13156
41.097687,3542,382,-13178
41.113312,3554,449,-13104
41.128937,3560,498,-13126
41.144562,3551,564,-13103
41.160187,3574,644,-13124
41.175812,3597,660,-13156
41.191437,3581,735,-13110
41.207062,3592,758,-13169
41.222687,3558,767,-13147
41.238312,3515,876,-13092
41.253937,3544,908,-13190
41.269562,3492,930,-13131
41.285187,3431,1008,-13061
41.300812,3424,1007,-13163
41.316437,3354,1014,-13122
41.332062,3306,1092,-13090
41.347687,3292,1133,-13181
41.363312,3212,1139,-13131
41.378937,3146,1135,-13103
41.394562,3119,1132,-13167
41.410187,3022,1142,-13097
41.425812,2965,1128,-13083
41.441437,2963,1153,-13167
41.457062,2899,1142,-13140
41.472687,2844,1087,-13135
41.488312,2781,1076,-13147
41.503937,2705,1046,-13119
41.519562,2663,1024,-13110
41.535187,2644,992,-13088
41.550812,2647,937,-13126
41.566437,2628,887,-13170
41.582062,2581,844,-13131
41.597687,2544,823,-13120
41.613312,2528,764,-13111
41.628937,2528,698,-13092
41.644562,2537,657,-13128
41.660187,2560,591,-13172
41.675812,2565,524,-13165
41.691437,2558,482,-13099
41.707062,2571,442,-13083
41.722687,2599,405,-13165
41.738312,2642,378,-13147
41.753937,2724,310,-13099
41.769562,2746,244,-13211
41.785187,2746,233,-13179
41.800812,2835,207,-13049
41.816437,2815,194,-13192
41.832062,2846,189,-13197
41.847687,3021,151,-13020
41.863312,3040,123,-13183
41.878937,3072,105,-13265
41.894562,3201,135,-13074
41.910187,3197,171,-13140
41.925812,3206,132,-13215
41.941437,3290,132,-13074
41.957062,3326,164,-13122
41.972687,3376,182,-13217
41.988312,3438,241,-13119
42.003937,3483,298,-13101
42.019562,3517,335,-13183
42.035187,3540,360,-13140
42.050812,3588,399,-13067
42.066437,3644,428,-13181
42.082062,3660,428,-13201
42.097687,3653,526,-13072
42.113312,3667,615,-13153
42.128937,3671,623,-13151
42.144562,3640,712,-13040
42.160187,3646,749,-13136
42.175812,3647,744,-13165
42.191437,3606,828,-13129
42.207062,3576,896,-13165
42.222687,3567,935,-13138
42.238312,3524,958,-13092
42.253937,3458,994,-13081
42.269562,3426,1032,-13103
42.285187,3406,1065,-13154
42.300812,3371,1101,-13160
42.316437,3321,1112,-13142
42.332062,3265,1137,-13156
42.347687,3174,1155,-13115
42.363312,3103,1148,-13081
42.378937,3083,1149,-13124
42.394562,3015,1148,-13108
42.410187,2976,1132,-13140
42.425812,2965,1126,-13201
42.441437,2847,1128,-13122
42.457062,2797,1090,-13117
42.472687,2808,1037,-13128
42.488312,2756,965,-13085
42.503937,2717,949,-13145
42.519562,2676,964,-13142
42.535187,2646,878,-13110
42.550812,2638,821,-13165
42.566437,2613,801,-13122
42.582062,2588,732,-13097
42.597687,2578,687,-13156
42.613312,2596,612,-13135
42.628937,2613,551,-13145
42.644562,2617,532,-13144
42.660187,2637,462,-13099
42.675812,2638,399,-13183
42.691437,2663,371,-13138
42.707062,2769,321,-13074
42.722687,2756,283,-13260
42.738312,2783,262,-13149
42.753937,2926,214,-13006
42.769562,2862,205,-13274
42.785187,2951,194,-13179
42.800812,3104,148,-13033
42.816437,3021,135,-13274
42.832062,3121,151,-13149
42.847687,3210,158,-13036
42.863312,3160,119,-13206
42.878937,3288,157,-13120
42.894562,3365,187,-13072
42.910187,3404,155,-13178
42.925812,3472,178,-13311
42.941437,3447,144,-13131
42.957062,3524,280,-12822
42.972687,3549,378,-13292
42.988312,3546,298,-13313
43.003937,3662,539,-12804
43.019562,3683,535,-13272
43.035187,3663,349,-13285
43.050812,3703,537,-12853
43.066437,3737,494,-13240
43.082062,3690,510,-13208
43.097687,3695,783,-12997
43.113312,3740,757,-13222
43.128937,3651,780,-13113
43.144562,3646,855,-13026
43.160187,3644,864,-13144
43.175812,3603,974,-13186
43.191437,3606,1014,-13135
43.207062,3501,1065,-13063
43.222687,3508,1069,-13135
43.238312,3476,1015,-13049
43.253937,3381,1087,-13033
43.269562,3446,1160,-13244
43.285187,3349,1189,-13151
43.300812,3279,1167,-13140
43.316437,3246,1128,-13245
43.332062,3033,1096,-13038
43.347687,2990,1119,-13028
43.363312,2994,1173,-13131
43.378937,2946,1128,-13092
43.394562,2951,1099,-13195
43.410187,2880,1064,-13240
43.425812,2812,1039,-13117
43.441437,2776,1040,-13036
43.457062,2742,944,-13094
43.472687,2769,907,-13158
43.488312,2776,844,-13142
43.503937,2717,773,-13206
43.519562,2640,799,-13144
43.535187,2594,744,-13035
43.550812,2585,683,-13122
43.566437,2606,632,-13131
43.582062,2663,560,-13135
43.597687,2724,503,-13165
43.613312,2737,435,-13136
43.628937,2719,410,-13147
43.644562,2771,380,-13108
43.660187,2803,324,-13156
43.675812,2799,316,-13192
43.691437,2883,292,-13083
43.707062,2905,219,-13186
43.722687,2935,180,-13220
43.738312,3049,174,-13078
43.753937,3047,149,-13163
43.769562,3112,133,-13158
43.785187,3233,137,-13099
43.800812,3262,128,-13186
43.816437,3331,183,-13138
43.832062,3374,244,-13145
43.847687,3406,217,-13161
43.863312,3497,235,-13101
43.878937,3508,205,-13179
43.894562,3533,180,-13126
43.910187,3603,280,-13086
43.925812,3624,303,-13179
43.941437,3678,394,-13110
43.957062,3720,483,-13160
43.972687,3712,460,-13192
43.988312,3720,537,-13076
44.003937,3744,544,-13135
44.019562,3749,576,-13103
44.035187,3799,724,-13097
44.050812,3837,740,-13206
44.066437,3770,776,-13113
44.082062,3758,824,-13110
44.097687,3742,801,-13136
44.113312,3662,892,-13079
44.128937,3658,987,-13178
44.144562,3603,1026,-13165
44.160187,3544,1057,-13092
44.175812,3537,1026,-13142
44.191437,3421,1064,-13088
44.207062,3379,1158,-13079
44.222687,3406,1210,-13149
44.238312,3333,1217,-13136
44.253937,3294,1182,-13170
44.269562,3237,1157,-13144
44.285187,3119,1139,-13067
44.300812,3083,1146,-13106
44.316437,3047,1142,-13101
44.332062,2987,1099,-13129
44.347687,2955,1076,-13215
44.363312,2876,1035,-13129
44.378937,2797,1010,-13085
44.394562,2760,1039,-13106
44.410187,2740,990,-13072
44.425812,2763,894,-13170
44.441437,2771,837,-13206
44.457062,2731,773,-13110
44.472687,2683,744,-13126
44.488312,2683,703,-13094
44.503937,2719,594,-13092
44.519562,2708,573,-13211
44.535187,2751,544,-13145
44.550812,2778,448,-13126
44.566437,2731,417,-13195
44.582062,2774,371,-13063
44.597687,2803,339,-13117
44.613312,2838,353,-13219
44.628937,2972,305,-13092
44.644562,3003,246,-13158
44.660187,3019,216,-13219
44.675812,3124,192,-13079
44.691437,3121,192,-13133
44.707062,3147,176,-13183
44.722687,3276,158,-13086
44.738312,3303,148,-13154
44.753937,3329,155,-13203
44.769562,3417,230,-13106
44.785187,3490,262,-13126
44.800812,3562,253,-13160
44.816437,3596,257,-13135
44.832062,3608,244,-13149
44.847687,3654,291,-13153
44.863312,3704,357,-13124
44.878937,3765,412,-13081
44.894562,3819,471,-13145
44.910187,3849,482,-13188
44.925812,3851,505,-13110
44.941437,3835,551,-13138
44.957062,3826,587,-13136
44.972687,3810,712,-13063
44.988312,3837,807,-13154
45.003937,3851,808,-13165
45.019562,3826,862,-13088
45.035187,3833,874,-13142
45.050812,3783,887,-13124
45.066437,3744,1012,-13110
45.082062,3738,1089,-13145
45.097687,3662,1092,-13094
45.113312,3624,1089,-13108
45.128937,3563,1082,-13117
45.144562,3494,1130,-13104
45.160187,3499,1201,-13172
45.175812,3433,1203,-13136
45.191437,3367,1180,-13108
45.207062,3317,1173,-13138
45.222687,3208,1164,-13078
45.238312,3163,1182,-13099
45.253937,3160,1199,-13145
45.269562,3117,1162,-13133
45.285187,3099,1092,-13167
45.300812,3053,1033,-13131
45.316437,2956,1005,-13074
45.332062,2899,1007,-13103
45.347687,2872,969,-13092
45.363312,2867,894,-13149
45.378937,2867,851,-13208
45.394562,2835,792,-13079
45.410187,2790,723,-13088
45.425812,2785,694,-13158
45.441437,2851,639,-13076
45.457062,2894,589,-13161
45.472687,2906,569,-13229
45.488312,2947,471,-13088
45.503937,2937,391,-13113
45.519562,2921,394,-13176
45.535187,3001,364,-13108
45.550812,3083,298,-13163
45.566437,3133,262,-13185
45.582062,3199,237,-13124
45.597687,3235,187,-13156
45.613312,3267,216,-13163
45.628937,3308,241,-13158
45.644562,3365,169,-13133
45.660187,3460,157,-13122
45.675812,3515,166,-13210
45.691437,3585,171,-13145
45.707062,3674,246,-13078
45.722687,3703,274,-13194
45.738312,3765,271,-13124
45.753937,3812,291,-13086
45.769562,3774,258,-13210
45.785187,3829,317,-13099
45.800812,3922,439,-13072
45.816437,3940,496,-13183
45.832062,3987,574,-13142
45.847687,4013,585,-13142
45.863312,3981,569,-13122
45.878937,3981,644,-13092
45.894562,3983,710,-13095
45.910187,3983,824,-13088
45.925812,4028,914,-13176
45.941437,3978,885,-13128
45.957062,3895,903,-13049
45.972687,3926,942,-13181
45.988312,3881,996,-13154
46.003937,3815,1101,-13085
46.019562,3812,1140,-13172
46.035187,3729,1137,-13106
46.050812,3662,1130,-13069
46.066437,3633,1151,-13149
46.082062,3565,1207,-13115
46.097687,3554,1253,-13138
46.113312,3515,1235,-13167
46.128937,3390,1153,-13095
46.144562,3331,1144,-13111
46.160187,3271,1178,-13092
46.175812,3221,1174,-13067
46.191437,3231,1174,-13178
46.207062,3194,1124,-13181
46.222687,3135,1033,-13111
46.238312,3072,996,-13115
46.253937,2996,965,-13056
46.269562,2980,930,-13061
46.285187,3024,899,-13197
46.300812,3046,801,-13194
46.316437,2999,714,-13144
46.332062,2949,692,-13135
46.347687,2951,640,-13069
46.363312,2958,596,-13097
46.378937,2999,582,-13167
46.394562,3062,516,-13165
46.410187,3104,421,-13158
46.425812,3137,333,-13133
46.441437,3126,308,-13140
46.457062,3162,344,-13142
46.472687,3262,330,-13108
46.488312,3306,269,-13154
46.503937,3379,223,-13142
46.519562,3476,198,-13122
46.535187,3471,194,-13217
46.550812,3531,221,-13122
46.566437,3626,246,-13056
46.582062,3626,182,-13203
46.597687,3717,155,-13129
46.613312,3803,230,-13099
46.628937,3813,249,-13215
46.644562,3895,314,-13111
46.660187,3929,371,-13106
46.675812,3947,344,-13161
46.691437,4028,423,-13097
46.707062,4070,458,-13119
46.722687,4087,489,-13111
46.738312,4128,587,-13147
46.753937,4145,589,-13170
46.769562,4101,644,-13076
46.785187,4104,714,-13129
46.800812,4126,732,-13133
46.816437,4092,839,-13092
46.832062,4097,910,-13188
46.847687,4083,939,-13131
46.863312,4035,1001,-13088
46.878937,4015,999,-13160
46.894562,3962,1044,-13085
46.910187,3940,1148,-13106
46.925812,3935,1158,-13194
46.941437,3844,1151,-13103
46.957062,3792,1189,-13119
46.972687,3749,1203,-13169
46.988312,3647,1208,-13090
47.003937,3608,1228,-13115
47.019562,3538,1224,-13138
47.035187,3449,1187,-13095
47.050812,3440,1176,-13124
47.066437,3371,1178,-13119
47.082062,3308,1153,-13128
47.097687,3308,1142,-13156
47.113312,3246,1096,-13088
47.128937,3201,1017,-13122
47.144684,3174,974,-13136
47.160309,3128,921,-13065
47.175934,3121,873,-13176
47.191559,3113,860,-13160
47.207184,3108,782,-13056
47.222809,3087,708,-13154
47.238434,3071,655,-13129
47.254059,3113,569,-13065
47.269684,3140,548,-13172
47.285309,3163,508,-13176
47.300934,3210,421,-13110
47.316559,3219,383,-13136
47.332184,3260,358,-13142
47.347809,3321,319,-13133
47.363434,3358,298,-13165
47.379059,3429,274,-13136
47.394684,3497,235,-13120
47.410309,3544,205,-13186
47.425934,3617,198,-13151
47.441559,3699,214,-13104
47.457184,3754,228,-13169
47.472809,3820,239,-13151
47.488434,3863,251,-13110
47.504059,3890,251,-13151
47.519684,3942,271,-13144
47.535309,3992,307,-13106
47.550934,4056,341,-13133
47.566559,4106,391,-13169
47.582184,4167,462,-13108
47.597809,4215,542,-13104
47.613434,4201,551,-13170
47.629059,4217,571,-13094
47.644684,4238,648,-13099
47.660309,4220,678,-13153
47.675934,4235,769,-13106
47.691559,4265,851,-13153
47.707184,4219,873,-13117
47.722809,4179,923,-13083
47.738434,4185,935,-13161
47.754059,4117,985,-13095
47.769684,4087,1085,-13119
47.785309,4090,1119,-13179
47.800934,3985,1140,-13069
47.816559,3940,1165,-13110
47.832184,3903,1174,-13151
47.847809,3797,1221,-13067
47.863434,3810,1278,-13153
47.879059,3756,1262,-13169
47.894684,3651,1214,-13081
47.910309,3617,1210,-13124
47.925934,3529,1210,-13120
47.941559,3476,1212,-13099
47.957184,3449,1194,-13120
47.972809,3401,1119,-13145
47.988434,3349,1089,-13174
48.004059,3283,1051,-13092
48.019684,3251,969,-13079
48.035309,3231,949,-13161
48.050934,3228,910,-13120
48.066559,3229,828,-13138
48.082184,3206,787,-13186
48.097809,3178,735,-13092
48.113434,3151,660,-13085
48.129059,3167,628,-13151
48.144562,3233,591,-13120
48.160187,3283,521,-13142
48.175812,3322,448,-13178
48.191437,3372,391,-13126
48.207062,3378,358,-13126
48.222687,3429,326,-13115
48.238312,3503,305,-13120
48.253937,3515,262,-13163
48.269562,3621,198,-13095
48.285187,3697,174,-13179
48.300812,3695,189,-13267
48.316437,3794,248,-13049
48.332062,3803,269,-13088
48.347687,3806,214,-13224
48.363312,3970,249,-13053
48.378937,4035,296,-13106
48.394562,4074,307,-13201
48.410187,4174,369,-13095
48.425812,4178,360,-13140
48.441437,4185,376,-13136
48.457062,4220,457,-13076
48.472687,4256,492,-13088
48.488312,4308,566,-13120
48.503937,4324,615,-13213
48.519562,4315,657,-13124
48.535187,4310,751,-13067
48.550812,4320,755,-13172
48.566437,4283,817,-13060
48.582062,4285,958,-13083
48.597687,4319,965,-13219
48.613312,4247,998,-13088
48.628937,4215,1051,-13108
48.644562,4163,1064,-13172
48.660187,4076,1144,-13070
48.675812,4079,1192,-13090
48.691437,4029,1208,-13129
48.707062,3963,1233,-13126
48.722687,3940,1226,-13153
48.738312,3854,1228,-13140
48.753937,3778,1253,-13119
48.769562,3710,1264,-13092
48.785187,3624,1235,-13072
48.800812,3601,1182,-13122
48.816437,3565,1155,-13149
48.832062,3512,1169,-13104
48.847687,3454,1149,-13135
48.863312,3397,1096,-13151
48.878937,3379,1046,-13085
48.894562,3335,994,-13090
48.910187,3312,939,-13133
48.925812,3301,865,-13133
48.941437,3267,823,-13133
48.957062,3269,776,-13136
48.972687,3262,710,-13142
48.988312,3276,648,-13110
49.003937,3349,583,-13104
49.019562,3365,548,-13181
49.035187,3367,496,-13129
49.050812,3440,414,-13097
49.066437,3429,387,-13211
49.082062,3462,341,-13108
49.097687,3596,298,-13049
49.113312,3592,299,-13224
49.128937,3660,244,-13120
49.144562,3769,230,-13070
49.160187,3737,235,-13231
49.175812,3853,239,-13085
49.191437,3945,260,-13078
49.207062,3913,230,-13229
49.222687,4042,287,-13061
49.238312,4115,330,-13115
49.253937,4110,285,-13211
49.269562,4213,362,-13051
49.285187,4238,369,-13158
49.300812,4256,349,-13181
49.316437,4342,485,-13042
49.332062,4365,549,-13131
49.347687,4383,576,-13151
49.363312,4417,607,-13145
49.378937,4395,619,-13129
49.394562,4372,733,-13054
49.410187,4397,812,-13120
49.425812,4401,862,-13110
49.441437,4394,953,-13122
49.457062,4378,948,-13185
49.472687,4313,969,-13074
49.488312,4315,1040,-13115
49.503937,4267,1085,-13158
49.519562,4162,1176,-13070
49.535187,4190,1212,-13145
49.550812,4124,1164,-13135
49.566437,4003,1183,-13085
49.582062,4003,1244,-13153
49.597687,3906,1253,-13086
49.613312,3813,1260,-13083
49.628937,3790,1278,-13154
49.644562,3706,1223,-13094
49.660187,3658,1173,-13110
49.675812,3601,1183,-13115
49.691437,3535,1160,-13083
49.707062,3531,1126,-13163
49.722687,3474,1071,-13131
49.738312,3408,994,-13086
49.753937,3399,978,-13135
49.769562,3362,932,-13092
49.785187,3329,883,-13117
49.800812,3354,855,-13170
49.816437,3371,773,-13113
49.832062,3367,701,-13124
49.847687,3374,628,-13122
49.863312,3401,562,-13103
49.878937,3421,546,-13179
49.894562,3454,514,-13154
49.910187,3513,437,-13083
49.925812,3521,353,-13151
49.941437,3558,310,-13133
49.957062,3651,321,-13090
49.972687,3671,321,-13197
49.988312,3754,280,-13154
50.003937,3872,253,-13095
50.019562,3872,248,-13208
50.035187,3938,233,-13156
50.050812,4029,246,-13101
50.066437,4051,257,-13176
50.082062,4138,282,-13136
50.097687,4213,308,-13151
50.113312,4235,301,-13163
50.128937,4276,346,-13092
50.144562,4301,389,-13111
50.160187,4367,444,-13067
50.175812,4463,521,-13103
50.191437,4476,519,-13229
50.207062,4463,587,-13142
50.222687,4463,680,-13117
50.238312,4435,696,-13126
50.253937,4408,798,-13029
50.269562,4422,903,-13113
50.285187,4438,957,-13190
50.300812,4435,1003,-13147
50.316437,4399,1008,-13128
50.332062,4324,1053,-13090
50.347687,4306,1124,-13097
50.363312,4276,1190,-13088
50.378937,4219,1226,-13097
50.394562,4245,1201,-13178
50.410187,4228,1208,-13145
50.425812,4144,1228,-13094
50.441437,4076,1230,-13142
50.457062,3983,1230,-13113
50.472687,3894,1221,-13044
50.488312,3815,1203,-13090
50.503937,3737,1192,-13151
50.519562,3667,1210,-13104
50.535187,3608,1205,-13094
50.550812,3554,1180,-13181
50.566437,3513,1140,-13119
50.582062,3496,1046,-13029
50.597687,3476,1005,-13165
50.613312,3460,973,-13165
50.628937,3462,889,-13054
50.644562,3467,890,-13174
50.660187,3471,840,-13172
50.675812,3472,685,-13035
50.691437,3428,624,-13149
50.707062,3406,585,-13178
50.722687,3483,496,-13047
50.738312,3497,457,-13167
50.753937,3501,426,-13213
50.769562,3587,382,-13063
50.785187,3613,366,-13133
50.800812,3674,346,-13194
50.816437,3776,344,-13122
50.832062,3799,330,-13158
50.847687,3887,271,-13154
50.863312,3965,230,-13144
50.878937,3999,208,-13128
50.894562,4087,223,-13069
50.910187,4137,230,-13183
50.925812,4197,239,-13179
50.941437,4281,348,-13069
50.957062,4278,369,-13192
50.972687,4310,342,-13140
50.988312,4356,421,-13036
51.003937,4360,426,-13154
51.019562,4426,494,-13111
51.035187,4538,608,-13117
51.050812,4583,582,-13204
51.066437,4565,653,-13133
51.082062,4565,726,-13113
51.097687,4528,749,-13074
51.113312,4495,878,-13090
51.128937,4519,912,-13179
51.144562,4467,932,-13115
51.160187,4470,982,-13126
51.175812,4461,973,-13122
51.191437,4342,1064,-13022
51.207062,4335,1182,-13104
51.222687,4311,1210,-13151
51.238312,4231,1253,-13094
51.253937,4219,1280,-13145
51.269562,4133,1258,-13142
51.285187,4035,1255,-13086
51.300812,3981,1262,-13108
51.316437,3919,1249,-13099
51.332062,3887,1214,-13092
51.347687,3840,1196,-13136
51.363312,3778,1207,-13158
51.378937,3719,1212,-13126
51.394562,3633,1162,-13083
51.410187,3562,1115,-13129
51.425812,3528,1053,-13120
51.441437,3526,939,-13074
51.457062,3519,917,-13167
51.472687,3510,915,-13144
51.488312,3513,840,-13061
51.503937,3490,796,-13154
51.519562,3488,757,-13140
51.535187,3546,667,-13047
51.550812,3531,564,-13161
51.566437,3503,524,-13199
51.582062,3583,480,-13069
51.597687,3610,421,-13140
51.613312,3631,405,-13186
51.628937,3749,349,-13072
51.644562,3785,312,-13147
51.660187,3822,328,-13211
51.675812,3929,328,-13124
51.691437,3962,289,-13136
51.707062,4004,241,-13153
51.722687,4069,239,-13138
51.738312,4133,235,-13124
51.753937,4226,244,-13106
51.769562,4262,294,-13188
51.785187,4329,342,-13147
51.800812,4428,374,-13097
51.816437,4394,357,-13197
51.832062,4385,408,-13081
51.847687,4465,501,-13031
51.863312,4499,498,-13161
51.878937,4535,594,-13115
51.894562,4606,673,-13161
51.910187,4619,646,-13169
51.925812,4588,717,-13047
51.941437,4581,778,-13099
51.957062,4561,865,-13119
51.972687,4558,994,-13149
51.988312,4554,1014,-13179
52.003937,4483,1010,-13081
52.019562,4454,1021,-13101
52.035187,4408,1060,-13108
52.050812,4344,1149,-13079
52.066437,4365,1223,-13170
52.082062,4310,1258,-13142
52.097687,4210,1258,-13104
52.113312,4158,1248,-13151
52.128937,4051,1276,-13092
52.144562,3988,1315,-13076
52.160187,3969,1287,-13120
52.175812,3904,1210,-13122
52.191437,3853,1176,-13165
52.207062,3778,1174,-13142
52.222687,3688,1167,-13069
52.238312,3642,1183,-13111
52.253937,3617,1164,-13126
52.269562,3588,1057,-13095
52.285187,3572,971,-13133
52.300812,3547,894,-13129
52.316437,3506,844,-13081
52.332062,3506,839,-13113
52.347687,3538,773,-13170
52.363312,3563,692,-13144
52.378937,3588,607,-13079
52.394562,3590,528,-13128
52.410187,3585,496,-13183
52.425812,3626,460,-13111
52.441437,3660,435,-13136
52.457062,3692,392,-13181
52.472687,3812,323,-13051
52.488312,3878,282,-13138
52.503937,3883,271,-13267
52.519562,4010,298,-13072
52.535187,4069,307,-13120
52.550812,4069,244,-13233
52.566437,4194,241,-13051
52.582062,4245,267,-13126
52.597687,4274,269,-13181
52.613312,4397,362,-13038
52.628937,4424,360,-13172
52.644562,4429,307,-13165
52.660187,4490,403,-13060
52.675812,4513,408,-13169
52.691437,4540,485,-13094
52.707062,4601,640,-13103
52.722687,4631,635,-13219
52.738312,4629,678,-13104
52.753937,4665,719,-13081
52.769562,4656,764,-13078
52.785187,4629,882,-13085
52.800812,4651,933,-13195
52.816437,4597,990,-13144
52.832062,4561,1014,-13126
52.847687,4501,999,-13135
52.863312,4401,1080,-13065
52.878937,4406,1158,-13145
52.894562,4381,1237,-13174
52.910187,4335,1283,-13090
52.925812,4301,1244,-13156
52.941437,4226,1242,-13170
52.957062,4112,1281,-13056
52.972687,4044,1305,-13092
52.988312,4013,1312,-13122
53.003937,3958,1258,-13074
53.019562,3913,1187,-13147
53.035187,3837,1176,-13140
53.050812,3788,1165,-13067
53.066437,3749,1149,-13140
53.082062,3665,1128,-13154
53.097687,3629,1053,-13097
53.113312,3601,978,-13124
53.128937,3565,919,-13156
53.144562,3556,889,-13090
53.160187,3571,821,-13056
53.175812,3574,746,-13195
53.191437,3588,728,-13170
53.207062,3646,623,-13017
53.222687,3624,553,-13181
53.238312,3617,557,-13197
53.253937,3713,460,-13006
53.269562,3699,416,-13179
53.285187,3733,405,-13203
53.300812,3892,308,-12992
53.316437,3862,276,-13181
53.332062,3888,301,-13251
53.347687,4062,298,-13031
53.363312,4045,305,-13147
53.378937,4090,298,-13213
53.394562,4231,285,-13054
53.410187,4245,262,-13140
53.425812,4308,274,-13192
53.441437,4403,330,-13085
53.457062,4458,337,-13079
53.472687,4510,382,-13170
53.488312,4515,389,-13203
53.503937,4535,421,-13042
53.519562,4561,562,-13058
53.535187,4603,583,-13183
53.550812,4661,657,-13063
53.566437,4683,742,-13149
53.582062,4683,690,-13201
53.597687,4663,794,-13019
53.613312,4672,880,-13128
53.628937,4661,890,-13165
53.644562,4615,1023,-13051
53.660187,4608,1048,-13153
53.675812,4549,1040,-13144
53.691437,4486,1105,-13085
53.707062,4456,1146,-13126
53.722687,4385,1212,-13101
53.738312,4356,1258,-13117
53.753937,4304,1273,-13131
53.769562,4204,1294,-13120
53.785187,4176,1303,-13154
53.800812,4104,1303,-13108
53.816437,4019,1301,-13103
53.832062,3983,1289,-13126
53.847687,3912,1224,-13090
53.863312,3878,1160,-13136
53.878937,3844,1140,-13108
53.894562,3753,1119,-13054
53.910187,3701,1108,-13142
53.925812,3669,1064,-13126
53.941437,3628,965,-13099
53.957062,3597,923,-13169
53.972687,3579,873,-13092
53.988312,3596,783,-13078
54.003937,3603,774,-13194
54.019562,3622,735,-13097
54.035187,3662,630,-13081
54.050812,3647,591,-13224
54.066437,3694,544,-13081
54.082062,3751,462,-13060
54.097687,3715,432,-13256
54.113312,3803,398,-13103
54.128937,3913,324,-13049
54.144562,3883,274,-13276
54.160187,3995,278,-13133
54.175812,4120,285,-13031
54.191437,4079,287,-13244
54.207062,4158,307,-13147
54.222687,4254,310,-13013
54.238312,4283,298,-13194
54.253937,4361,292,-13224
54.269562,4445,326,-13031
54.285187,4515,385,-13101
54.300812,4520,333,-13281
54.316437,4540,355,-13031
54.332062,4599,537,-12978
54.347687,4620,539,-13269
54.363312,4654,583,-13072
54.378937,4699,749,-13053
54.394562,4708,669,-13310
54.410187,4663,705,-13004
54.425812,4672,855,-12951
54.441437,4704,851,-13229
54.457062,4676,967,-13131
54.472687,4686,1044,-13119
54.488312,4635,1014,-13197
54.503937,4547,1069,-13095
54.519562,4494,1124,-13035
54.535187,4426,1189,-13104
54.550812,4445,1242,-13170
54.566437,4406,1249,-13094
54.582062,4313,1242,-13111
54.597687,4292,1262,-13206
54.613312,4163,1301,-13085
54.628937,4087,1335,-13070
54.644562,4076,1349,-13138
54.660187,3976,1260,-13058
54.675812,3953,1189,-13133
54.691437,3908,1214,-13179
54.707062,3817,1180,-13070
54.722687,3797,1167,-13111
54.738312,3760,1146,-13138
54.753937,3713,1035,-13088
54.769562,3687,974,-13140
54.785187,3667,926,-13133
54.800812,3671,853,-13085
54.816437,3647,824,-13151
54.832062,3654,751,-13145
54.847687,3703,624,-13074
54.863312,3690,546,-13144
54.878937,3704,473,-13156
54.894562,3747,410,-13092
54.910187,3710,407,-13183
54.925812,3744,358,-13161
54.941437,3806,266,-13074
54.957062,3787,244,-13147
54.972687,3862,237,-13149
54.988312,3951,196,-13149
55.003937,4010,180,-13163
55.019562,4062,187,-13120
55.035187,4044,167,-13144
55.050812,4092,157,-13117
55.066437,4138,191,-13133
55.082062,4178,221,-13161
55.097687,4276,262,-13085
55.113312,4297,278,-13185
55.128937,4308,264,-13201
55.144562,4333,332,-13033
55.160187,4313,383,-13108
55.175812,4324,398,-13160
55.191437,4388,491,-13120
55.207062,4419,539,-13190
55.222687,4347,603,-13147
55.238312,4315,694,-13079
55.253937,4311,721,-13054
55.269562,4287,799,-13079
55.285187,4329,848,-13181
55.300812,4294,848,-13178
55.316437,4213,889,-13156
55.332062,4172,921,-13119
55.347687,4069,992,-13045
55.363312,3994,1039,-13111
55.378937,3945,1040,-13135
55.394562,3908,1119,-13085
55.410187,3904,1148,-13170
55.425812,3833,1123,-13183
55.441437,3701,1174,-13081
55.457062,3597,1183,-13095
55.472687,3512,1117,-13094
55.488312,3453,1110,-13063
55.503937,3408,1155,-13131
55.519562,3342,1140,-13154
55.535187,3278,1092,-13147
55.550812,3204,1046,-13142
55.566437,3112,990,-13069
55.582062,3051,935,-13069
55.597687,3031,892,-13108
55.613312,3003,844,-13122
55.628937,2946,826,-13192
55.644562,2872,814,-13185
55.660187,2849,735,-13097
55.675812,2862,644,-13094
55.691437,2851,589,-13117
55.707062,2856,539,-13128
55.722687,2865,482,-13147
55.738312,2858,419,-13156
55.753937,2862,374,-13144
55.769562,2899,328,-13072
55.785187,2915,271,-13115
55.800812,2897,239,-13204
55.816437,2980,223,-13104
55.832062,3044,182,-13145
55.847687,3003,132,-13236
55.863312,3101,119,-13060
55.878937,3135,117,-13113
55.894562,3094,105,-13228
55.910187,3251,76,-13035
55.925812,3276,60,-13145
55.941437,3246,62,-13261
55.957062,3383,103,-13060
55.972687,3388,128,-13138
55.988312,3383,117,-13170
56.003937,3453,169,-13044
56.019562,3437,160,-13174
56.035187,3469,162,-13170
56.050812,3524,258,-13097
56.066437,3519,282,-13156
56.082062,3538,376,-13097
56.097687,3554,455,-13135
56.113312,3562,410,-13174
56.128937,3574,451,-13094
56.144562,3576,499,-13126
56.160187,3549,560,-13104
56.175812,3535,655,-13119
56.191437,3535,664,-13176
56.207062,3478,707,-13078
56.222687,3472,733,-13110
56.238312,3415,715,-13156
56.253937,3287,837,-13099
56.269562,3321,957,-13145
56.285187,3306,962,-13101
56.300812,3228,942,-13058
56.316437,3179,935,-13128
56.332062,3069,965,-13117
56.347687,3044,1048,-13115
56.363312,3021,1107,-13144
56.378937,2933,1067,-13129
56.394562,2863,1012,-13133
56.410187,2767,1001,-13111
56.425812,2687,1028,-13083
56.441437,2630,1026,-13129
56.457062,2608,1026,-13156
56.472687,2572,1032,-13126
56.488312,2455,990,-13144
56.503937,2360,974,-13131
56.519562,2306,935,-13053
56.535187,2267,889,-13090
56.550812,2253,869,-13181
56.566437,2233,780,-13186
56.582062,2199,746,-13167
56.597687,2167,735,-13120
56.613312,2101,640,-13106
56.628937,2064,633,-13110
56.644562,2094,591,-13117
56.660187,2083,487,-13208
56.675812,2071,464,-13172
56.691437,2065,403,-13092
56.707062,1996,383,-13167
56.722687,2010,383,-13113
56.738312,2080,289,-13101
56.753937,2060,260,-13244
56.769562,2124,214,-13149
56.785187,2187,114,-13099
56.800812,2131,108,-13219
56.816437,2171,87,-13151
56.832062,2190,64,-13115
56.847687,2189,69,-13154
56.863312,2271,-2,-13136
56.878937,2283,-36,-13181
56.894562,2340,1,-13158
56.910187,2399,-9,-13167
56.925812,2383,-11,-13201
56.941437,2463,-9,-13086
56.957062,2458,-50,-13136
56.972687,2465,-38,-13179
56.988312,2617,10,-13081
57.003937,2608,32,-13181
57.019562,2615,66,-13172
57.035187,2692,55,-13103
57.050812,2646,12,-13188
57.066437,2663,69,-13117
57.082062,2696,108,-13106
57.097687,2703,157,-13144
57.113312,2790,287,-13104
57.128937,2805,264,-13203
57.144562,2751,244,-13154
57.160187,2726,287,-13108
57.175812,2717,258,-13192
57.191437,2731,394,-13083
57.207062,2755,505,-13131
57.222687,2746,498,-13222
57.238312,2719,589,-13090
57.253937,2731,539,-13111
57.269562,2692,499,-13151
57.285187,2662,639,-13126
57.300812,2660,660,-13188
57.316437,2585,728,-13161
57.332062,2567,815,-13094
57.347687,2519,744,-13076
57.363312,2474,776,-13097
57.378937,2458,878,-13170
57.394562,2367,894,-13188
57.410187,2355,921,-13145
57.425812,2322,928,-13129
57.441437,2230,890,-13097
57.457062,2169,921,-13079
57.472687,2131,998,-13124
57.488312,2097,999,-13131
57.503937,2039,974,-13120
57.519562,2008,971,-13179
57.535187,1924,851,-13151
57.550812,1833,853,-13092
57.566437,1831,1030,-13128
57.582062,1755,882,-13086
57.597687,1714,767,-13156
57.613312,1706,948,-13226
57.628937,1592,814,-13056
57.644562,1573,726,-13120
57.660187,1553,933,-13179
57.675812,1480,764,-13024
57.691437,1476,596,-13172
57.707062,1421,769,-13211
57.722687,1367,674,-13029
57.738312,1335,519,-13133
57.753937,1267,678,-13204
57.769562,1303,655,-13104
57.785187,1346,373,-13129
57.800812,1255,398,-13211
57.816437,1223,544,-13138
57.832062,1258,333,-13053
57.847687,1182,273,-13169
57.863312,1155,471,-13195
57.878937,1248,289,-13074
57.894562,1233,87,-13153
57.910187,1185,249,-13231
57.925812,1283,198,-13088
57.941437,1305,-6,-13128
57.957062,1194,128,-13261
57.972687,1258,191,-13079
57.988312,1340,-61,-13076
58.003937,1249,-77,-13286
58.019562,1319,74,-13126
58.035187,1448,-52,-13074
58.050812,1378,-150,-13288
58.066437,1387,-27,-13136
58.082062,1451,-38,-13036
58.097687,1423,-172,-13265
58.113312,1471,-129,-13199
58.128937,1535,-22,-13063
58.144562,1549,-113,-13220
58.160187,1599,-211,-13249
58.175812,1623,-131,-13101
58.191437,1635,-81,-13133
58.207062,1649,-140,-13231
58.222687,1680,-120,-13113
58.238312,1728,-43,-13099
58.253937,1731,-111,-13281
58.269562,1776,-133,-13113
58.285187,1810,16,-13028
58.300812,1783,-29,-13283
58.316437,1865,-92,-13144
58.332062,1896,28,-13070
58.347687,1826,28,-13279
58.363312,1889,48,-13104
58.378937,1921,103,-13060
58.394562,1874,73,-13231
58.410187,1940,133,-13158
58.425812,1983,114,-13138
58.441437,1924,116,-13169
58.457062,1912,257,-13160
58.472687,1899,274,-13011
58.488312,1853,342,-13076
58.503937,1956,337,-13436
58.519562,1987,299,-13010
58.535187,1919,483,-12888
58.550812,1990,314,-13526
58.566437,1858,301,-13085
58.582062,1749,605,-12892
58.597687,1835,405,-13431
58.613312,1724,423,-13038
58.628937,1753,665,-12965
58.644562,1842,594,-13401
58.660187,1717,649,-13115
58.675812,1723,723,-13019
58.691437,1735,690,-13244
58.707062,1658,723,-13088
58.722687,1671,737,-12999
58.738312,1664,730,-13210
58.753937,1635,715,-13249
58.769562,1539,726,-13085
58.785187,1474,712,-13158
58.800812,1453,689,-13217
58.816437,1310,808,-13006
58.832062,1312,919,-13092
58.847687,1348,887,-13233
58.863312,1248,844,-13069
58.878937,1278,880,-13163
58.894562,1299,915,-13270
58.910187,1199,880,-13036
58.925812,1183,828,-13085
58.941437,1189,803,-13256
58.957062,1085,789,-13070
58.972687,1008,774,-13072
58.988312,999,808,-13288
59.003937,921,851,-13111
59.019562,839,844,-13029
59.035187,849,835,-13263
59.050812,815,767,-13110
59.066437,758,703,-12997
59.082062,787,803,-13249
59.097687,789,823,-13160
59.113312,764,694,-13056
59.128937,751,648,-13274
59.144562,689,671,-13203
59.160187,630,637,-13008
59.175812,580,571,-13160
59.191437,498,592,-13247
59.207062,460,574,-13081
59.222687,474,505,-13174
59.238312,489,546,-13253
59.253937,519,507,-13010
59.269562,507,405,-13110
59.285187,498,464,-13299
59.300812,555,435,-13074
59.316437,517,360,-13111
59.332062,449,380,-13286
59.347687,444,314,-13072
59.363312,380,255,-13072
59.378937,346,235,-13240
59.394562,403,178,-13135
59.410187,426,142,-13119
59.425812,417,167,-13228
59.441437,433,191,-13174
59.457062,444,167,-13069
59.472687,458,121,-13129
59.488312,476,99,-13226
59.503937,466,101,-13158
59.519562,430,30,-13120
59.535187,403,-36,-13213
59.550812,433,-74,-13151
59.566437,467,-131,-13072
59.582062,453,-67,-13220
59.597687,507,-33,-13186
59.613312,589,-86,-13072
59.628937,573,-79,-13240
59.644562,569,-88,-13208
59.660187,592,-90,-13081
59.675812,555,-100,-13219
59.691437,557,-156,-13169
59.707062,621,-222,-13074
59.722687,614,-281,-13178
59.738312,664,-250,-13172
59.753937,742,-261,-13165
59.769562,717,-268,-13163
59.785187,746,-188,-13138
59.800812,742,-197,-13220
59.816437,721,-163,-13145
59.832062,767,-93,-13088
59.847687,744,-190,-13228
59.863312,799,-234,-13160
59.878937,860,-243,-13122
59.894562,805,-292,-13204
59.910187,887,-243,-13131
59.925812,912,-254,-13176
59.941437,867,-268,-13163
59.957062,946,-193,-13097
59.972687,907,-222,-13240
59.988312,907,-158,-13153
60.003937,960,-40,-13103
60.019562,917,-138,-13238
60.035187,999,-147,-13106
60.050812,1074,-170,-13149
60.066437,1033,-281,-13242
60.082062,1055,-133,-13090
60.097687,1058,-92,-13185
60.113312,1078,-125,-13174
60.128937,1096,0,-13113
60.144562,1033,-79,-13267
60.160187,1049,-74,-13145
60.175812,1071,26,-13131
60.191437,1062,-77,-13204
60.207062,1103,17,-13090
60.222687,1139,66,-13222
60.238312,1171,-81,-13203
60.253937,1155,41,-13063
60.269562,1133,116,-13206
60.285187,1164,32,-13165
60.300812,1164,101,-13090
60.316437,1119,158,-13206
60.332062,1090,121,-13194
60.347687,1094,167,-13145
60.363312,1099,228,-13158
60.378937,1126,164,-13136
60.394562,1149,182,-13138
60.410187,1160,289,-13165
60.425812,1183,223,-13165
60.441437,1139,194,-13161
60.457062,1083,324,-13149
60.472687,1078,317,-13135
60.488312,1078,274,-13153
60.503937,1078,394,-13145
60.519562,1082,467,-13144
60.535187,1098,380,-13176
60.550812,1071,366,-13149
60.566437,1028,423,-13133
60.582062,1023,360,-13165
60.597687,1015,360,-13160
60.613312,1010,507,-13154
60.628937,1007,530,-13149
60.644562,983,466,-13142
60.660187,964,517,-13154
60.675812,955,576,-13153
60.691437,940,537,-13170
60.707062,912,546,-13158
60.722687,880,617,-13126
60.738312,910,578,-13144
60.753937,912,512,-13108
60.769562,848,567,-13110
60.785187,871,630,-13194
60.800812,848,607,-13149
60.816437,767,598,-13122
60.832062,771,673,-13172
60.847687,732,724,-13104
60.863312,708,683,-13104
60.878937,753,637,-13163
60.894562,715,673,-13113
60.910187,715,696,-13181
60.925812,739,614,-13222
60.941437,671,632,-13113
60.957062,658,753,-13147
60.972687,615,764,-13142
60.988312,548,726,-13081
61.003937,551,705,-13158
61.019562,512,739,-13161
61.035187,537,794,-13149
61.050812,571,740,-13178
61.066437,491,689,-13128
61.082062,483,740,-13129
61.097687,487,783,-13138
61.113312,448,744,-13119
61.128937,457,714,-13136
61.144562,437,714,-13142
61.160187,421,735,-13176
61.175812,392,785,-13165
61.191437,317,776,-13106
61.207062,307,726,-13135
61.222687,294,760,-13115
61.238312,285,808,-13110
61.253937,314,764,-13176
61.269562,292,740,-13149
61.285187,299,726,-13163
61.300812,307,703,-13192
61.316437,249,765,-13119
61.332062,226,758,-13136
61.347687,198,682,-13183
61.363312,137,680,-13129
61.378937,116,710,-13129
61.394562,121,767,-13161
61.410187,135,751,-13161
61.425812,135,673,-13176
61.441437,121,660,-13153
61.457062,98,630,-13110
61.472687,80,655,-13119
61.488312,83,723,-13151
61.503937,69,690,-13178
61.519562,53,667,-13176
61.535187,28,658,-13124
61.550812,-20,626,-13124
61.566437,-25,690,-13138
61.582062,-38,698,-13113
61.597687,-33,615,-13172
61.613312,-2,637,-13190
61.628937,-40,623,-13110
61.644562,-47,583,-13117
61.660187,-38,605,-13131
61.675812,-56,632,-13158
61.691437,-63,646,-13199
61.707062,-102,598,-13135
61.722687,-117,612,-13122
61.738312,-124,628,-13111
61.753937,-140,546,-13117
61.769562,-117,562,-13201
61.785187,-104,599,-13169
61.800812,-113,539,-13167
61.816437,-136,526,-13163
61.832062,-172,573,-13085
61.847687,-186,574,-13145
61.863312,-167,524,-13188
61.878937,-167,483,-13158
61.894562,-192,514,-13181
61.910187,-197,557,-13167
61.925812,-206,512,-13104
61.941437,-229,457,-13117
61.957062,-209,503,-13176
61.972687,-183,508,-13170
61.988312,-206,458,-13151
62.003937,-233,469,-13144
62.019562,-263,492,-13140
62.035187,-274,503,-13167
62.050812,-245,483,-13151
62.066437,-247,469,-13170
62.082062,-256,458,-13167
62.097687,-274,410,-13094
62.113312,-290,451,-13153
62.128937,-265,510,-13167
62.144562,-243,424,-13135
62.160187,-236,391,-13204
62.175812,-242,399,-13151
62.191437,-290,382,-13106
62.207062,-318,396,-13144
62.222687,-300,398,-13142
62.238312,-308,439,-13195
62.253937,-304,414,-13170
62.269562,-293,332,-13128
62.285187,-313,362,-13161
62.300812,-302,396,-13110
62.316437,-288,401,-13144
62.332062,-300,424,-13242
62.347687,-290,399,-13161
62.363312,-297,357,-13122
62.378937,-333,353,-13165
62.394562,-345,355,-13099
62.410187,-340,328,-13126
62.425812,-327,333,-13244
62.441437,-320,344,-13181
62.457062,-317,321,-13129
62.472687,-327,341,-13161
62.488312,-340,364,-13129
62.503937,-325,349,-13140
62.519562,-304,330,-13192
62.535187,-299,332,-13194
62.550812,-325,348,-13154
62.566437,-372,366,-13124
62.582062,-381,349,-13138
62.597687,-349,316,-13158
62.613312,-327,317,-13160
62.628937,-322,321,-13176
62.644562,-322,321,-13167
62.660187,-324,324,-13140
62.675812,-320,353,-13154
62.691437,-333,360,-13154
62.707062,-349,324,-13167
62.722687,-343,346,-13181
62.738312,-345,342,-13145
62.753937,-374,332,-13142
62.769562,-384,371,-13138
62.785187,-338,344,-13156
62.800812,-304,305,-13201
62.816437,-327,303,-13158
62.832062,-333,299,-13163
62.847687,-336,324,-13176
62.863312,-354,317,-13108
62.878937,-350,319,-13170
62.894562,-352,362,-13208
62.910187,-343,308,-13133
62.925812,-338,285,-13183
62.941437,-350,323,-13181
62.957062,-345,310,-13101
62.972687,-333,344,-13174
62.988312,-313,357,-13203
63.003937,-320,323,-13160
63.019562,-340,337,-13174
63.035187,-329,316,-13151
63.050812,-336,301,-13145
63.066437,-365,348,-13161
63.082062,-363,362,-13153
63.097687,-345,366,-13172
63.113312,-347,376,-13144
63.128937,-347,360,-13129
63.144562,-340,351,-13174
63.160187,-336,362,-13156
63.175812,-320,366,-13169
63.191437,-318,376,-13206
63.207062,-334,396,-13154
63.222687,-352,399,-13147
63.238312,-367,412,-13163
63.253937,-359,399,-13124
63.269562,-359,396,-13169
63.285187,-349,428,-13203
63.300812,-320,398,-13151
63.316437,-340,403,-13160
63.332062,-349,442,-13169
63.347687,-299,410,-13144
63.363312,-306,428,-13156
63.378937,-347,464,-13156
63.394562,-354,455,-13165
63.410187,-359,466,-13161
63.425812,-358,449,-13136
63.441437,-349,439,-13176
63.457062,-345,442,-13170
63.472687,-347,424,-13124
63.488312,-338,446,-13178
63.503937,-338,476,-13165
63.519562,-352,457,-13101
63.535187,-343,446,-13165
63.550812,-333,451,-13176
63.566437,-354,423,-13142
63.582062,-361,435,-13156
63.597687,-367,449,-13124
63.613312,-368,433,-13170
63.628937,-320,435,-13195
63.644562,-302,414,-13142
63.660187,-325,426,-13203
63.675812,-331,433,-13154
63.691437,-349,410,-13086
63.707062,-342,455,-13179
63.722687,-333,442,-13149
63.738312,-350,405,-13144
63.753937,-334,433,-13190
63.769562,-340,412,-13128
63.785187,-365,394,-13138
63.800812,-352,401,-13153
63.816437,-352,387,-13149
63.832062,-350,408,-13176
63.847687,-318,399,-13144
63.863312,-320,382,-13161
63.878937,-324,383,-13156
63.894562,-318,355,-13108
63.910187,-336,360,-13176
63.925812,-347,358,-13174
63.941437,-358,330,-13129
63.957062,-363,371,-13176
63.972687,-356,387,-13153
63.988312,-338,353,-13156
64.003937,-325,351,-13183
64.019562,-331,342,-13145
64.035187,-325,357,-13170
64.050812,-317,373,-13161
64.066437,-329,342,-13136
64.082062,-345,333,-13167
64.097687,-347,335,-13128
64.113312,-349,335,-13144
64.128937,-358,358,-13199
64.144562,-356,364,-13120
64.160187,-347,339,-13133
64.175812,-352,355,-13242
64.191437,-345,376,-13149
64.207062,-331,353,-13085
64.222687,-347,380,-13215
64.238312,-313,399,-13170
64.253937,-284,339,-13070
64.269562,-333,357,-13199
64.285187,-242,323,-13253
64.300812,-274,224,-13040
64.316437,-556,287,-13040
64.332062,-618,382,-13336
64.347687,-509,510,-13083
64.363312,-365,508,-12878
64.378937,-225,521,-13433
64.394562,-156,555,-13276
64.410187,-143,280,-12862
64.425812,-240,219,-13358
64.441437,-338,299,-13206
64.457062,-381,198,-12799
64.472687,-424,378,-13333
64.488312,-413,549,-13329
64.503937,-400,424,-12953
64.519562,-468,474,-13242
64.535187,-474,496,-13220
64.550812,-384,403,-12935
64.566437,-304,453,-13183
64.582062,-190,496,-13365
64.597687,-118,467,-13135
64.613312,-179,360,-13129
64.628937,-304,303,-13283
64.644562,-438,305,-13036
64.660187,-525,291,-13011
64.675812,-536,430,-13328
64.691437,-484,528,-13174
64.707062,-393,501,-13069
64.722687,-299,535,-13260
64.738312,-217,492,-13124
64.753937,-190,412,-13044
64.769562,-225,426,-13265
64.785187,-272,430,-13236
64.800812,-340,378,-13078
64.816437,-415,366,-13188
64.832062,-436,376,-13172
64.847687,-427,319,-13022
64.863312,-424,348,-13192
64.878937,-411,444,-13238
64.894562,-386,462,-13074
64.910187,-333,505,-13174
64.925812,-261,514,-13201
64.941437,-204,451,-13097
64.957062,-179,410,-13181
64.972687,-233,358,-13208
64.988312,-347,335,-13120
65.003937,-463,358,-13126
65.019562,-545,374,-13160
65.035187,-517,380,-13115
65.050812,-390,346,-13115
65.066437,-293,344,-13228
65.082062,-243,399,-13165
65.097687,-224,410,-13069
65.113312,-258,469,-13217
65.128937,-297,505,-13179
65.144562,-327,389,-13088
65.160187,-365,339,-13261
65.175812,-393,301,-13165
65.191437,-427,228,-13008
65.207062,-447,314,-13197
65.222687,-424,373,-13195
65.238312,-374,342,-13088
65.253937,-315,383,-13217
65.269562,-277,389,-13178
65.285187,-240,341,-13054
65.300812,-217,369,-13160
65.316437,-254,424,-13197
65.332062,-329,428,-13122
65.347687,-422,408,-13163
65.363312,-474,358,-13195
65.378937,-468,287,-13090
65.394562,-433,264,-13065
65.410187,-347,301,-13197
65.425812,-256,335,-13197
65.441437,-217,369,-13142
65.457062,-234,435,-13224
65.472687,-283,455,-13147
65.488312,-334,380,-13047
65.503937,-374,369,-13185
65.519562,-390,403,-13174
65.535187,-399,373,-13119
65.550812,-417,398,-13206
65.566437,-415,385,-13153
65.582062,-377,344,-13097
65.597687,-329,337,-13108
65.613312,-304,307,-13145
65.628937,-272,398,-13220
65.644562,-252,480,-13185
65.660187,-286,503,-13124
65.675812,-340,489,-13204
65.691437,-390,394,-13224
65.707062,-433,339,-13038
65.722687,-470,278,-13088
65.738312,-434,312,-13245
65.753937,-334,408,-13045
65.769562,-300,439,-13101
65.785187,-267,521,-13329
65.800812,-200,492,-13126
65.816437,-242,399,-13113
65.832062,-324,442,-13261
65.847687,-352,405,-13074
65.863312,-397,380,-13085
65.878937,-438,442,-13260
65.894562,-425,423,-13156
65.910187,-374,387,-13103
65.925812,-345,351,-13211
65.941437,-343,367,-13144
65.957062,-318,387,-13047
65.972687,-293,435,-13244
65.988312,-270,535,-13269
66.003937,-267,466,-13076
66.019562,-336,432,-13215
66.035187,-393,442,-13178
66.050812,-418,317,-12994
66.066437,-461,351,-13215
66.082062,-449,426,-13204
66.097687,-388,378,-13065
66.113312,-325,410,-13228
66.128937,-267,398,-13176
66.144562,-265,344,-13063
66.160187,-275,387,-13178
66.175812,-290,407,-13206
66.191437,-352,449,-13135
66.207062,-392,467,-13147
66.222687,-397,412,-13181
66.238312,-388,362,-13110
66.253937,-368,312,-13119
66.269562,-347,310,-13211
66.285187,-318,324,-13156
66.300812,-295,341,-13147
66.316437,-297,408,-13211
66.332062,-290,424,-13136
66.347687,-284,378,-13135
66.363312,-315,392,-13203
66.378937,-347,392,-13120
66.394562,-392,391,-13120
66.410187,-431,423,-13188
66.425812,-415,378,-13126
66.441437,-363,342,-13135
66.457062,-318,337,-13185
66.472687,-275,296,-13144
66.488312,-270,301,-13167
66.503937,-297,369,-13183
66.519562,-320,417,-13106
66.535187,-350,428,-13165
66.550812,-372,419,-13199
66.566437,-384,374,-13094
66.582062,-402,355,-13133
66.597687,-397,360,-13181
66.613312,-375,366,-13117
66.628937,-343,394,-13144
66.644562,-322,398,-13188
66.660187,-306,371,-13179
66.675812,-283,339,-13136
66.691437,-304,317,-13128
66.707062,-338,378,-13158
66.722687,-365,442,-13120
66.738312,-400,442,-13183
66.753937,-386,485,-13204
66.769562,-400,424,-13085
66.785187,-390,330,-13140
66.800812,-218,373,-13167
66.816437,-277,314,-13147
66.832062,-447,246,-13235
66.847687,-361,317,-13186
66.863312,-293,426,-13067
66.878937,-367,374,-13078
66.894562,-343,282,-13292
66.910187,-288,439,-13278
66.925812,-500,326,-13122
66.941437,-556,314,-13154
66.957062,-397,605,-13029
66.972687,-309,432,-13154
66.988312,-192,249,-13399
67.003937,-236,203,-13217
67.019562,-381,266,-13001
67.035187,-417,469,-12972
67.050812,-404,519,-13185
67.066437,-336,599,-13315
67.082062,-274,460,-13222
67.097687,-325,291,-13263
67.113312,-418,323,-13019
67.128937,-438,301,-12851
67.144562,-386,499,-13222
67.160187,-277,608,-13303
67.175812,-199,446,-13288
67.191437,-249,408,-13322
67.207062,-354,264,-12988
67.222687,-436,194,-12919
67.238312,-443,383,-13094
67.253937,-368,491,-13215
67.269562,-315,560,-13361
67.285187,-325,519,-13278
67.300812,-359,378,-13110
67.316437,-381,287,-12956
67.332062,-359,232,-12992
67.347687,-300,346,-13278
67.363312,-249,466,-13281
67.378937,-299,473,-13256
67.394562,-358,489,-13245
67.410187,-406,364,-12797
67.425812,-488,339,-12817
67.441437,-356,439,-13279
67.457062,-188,360,-13349
67.472687,-224,483,-13438
67.488312,-300,583,-13253
67.503937,-422,371,-12783
67.519562,-406,266,-12940
67.535187,-186,283,-13363
67.550812,-152,351,-13379
67.566437,-304,474,-13236
67.582062,-400,564,-13188
67.597687,-447,571,-13051
67.613312,-422,449,-12988
67.628937,-325,332,-13165
67.644562,-272,287,-13151
67.660187,-288,307,-13101
67.675812,-306,485,-13247
67.691437,-300,555,-13222
67.707062,-320,464,-13140
67.722687,-322,364,-13149
67.738312,-288,223,-13153
67.753937,-309,167,-13133
67.769562,-402,216,-13138
67.785187,-390,349,-13142
67.800812,-250,442,-13051
67.816437,-256,360,-13103
67.832062,-267,274,-13228
67.847687,-200,262,-13226
67.863312,-218,232,-13220
67.878937,-311,294,-13099
67.894562,-463,510,-12926
67.910187,-438,610,-13069
67.925812,-261,582,-13340
67.941437,-225,451,-13315
67.957062,-290,337,-13228
67.972687,-327,333,-13128
67.988312,-352,244,-13003
68.003937,-315,337,-13156
68.019562,-213,519,-13294
68.035187,-218,426,-13203
68.050812,-249,262,-13095
68.066437,-236,235,-13176
68.082062,-297,358,-13258
68.097687,-356,389,-13140
68.113312,-300,457,-13215
68.128937,-240,585,-13272
68.144562,-268,389,-13106
68.160187,-292,201,-13138
68.175812,-290,239,-13144
68.191437,-284,282,-13092
68.207062,-254,387,-13194
68.222687,-252,541,-13219
68.238312,-261,639,-13215
68.253937,-199,503,-13240
68.269562,-208,314,-13153
68.285187,-352,383,-13183
68.300812,-390,424,-13154
68.316437,-333,321,-12990
68.332062,-324,373,-13142
68.347687,-288,483,-13179
68.363312,-249,371,-13031
68.378937,-247,328,-13183
68.394562,-243,392,-13238
68.410187,-256,389,-13158
68.425812,-268,469,-13247
68.441437,-290,482,-13235
68.457062,-331,335,-13101
68.472687,-318,273,-13060
68.488312,-275,319,-13085
68.503937,-240,374,-13153
68.519562,-233,464,-13233
68.535187,-249,469,-13233
68.550812,-243,389,-13158
68.566437,-243,349,-13086
68.582062,-261,337,-13124
68.597687,-268,387,-13219
68.613312,-267,433,-13215
68.628937,-297,391,-13181
68.644562,-336,355,-13149
68.660187,-324,355,-13101
68.675812,-313,387,-13147
68.691437,-295,453,-13172
68.707062,-249,444,-13144
68.722687,-245,374,-13192
68.738312,-268,333,-13185
68.753937,-277,328,-13120
68.769562,-299,369,-13149
68.785187,-325,408,-13163
68.800812,-334,396,-13104
68.816437,-299,389,-13103
68.832062,-268,385,-13176
68.847687,-267,382,-13242
68.863312,-184,385,-13274
68.878937,-163,357,-13267
68.894562,-261,385,-13201
68.910187,-293,376,-13078
68.925812,-304,310,-13019
68.941437,-352,312,-13086
68.957062,-340,307,-13122
68.972687,-283,321,-13122
68.988312,-259,366,-13194
69.003937,-217,391,-13206
69.019562,-197,432,-13219
69.035187,-215,523,-13253
69.050812,-197,544,-13119
69.066437,-240,553,-13253
69.082062,-250,523,-12945
69.097687,-152,123,-12247
69.113312,-156,46,-12906
69.128937,-249,457,-13372
69.144531,-254,553,-13017
69.160156,-233,544,-13219
69.175781,-242,510,-13226
69.191406,-218,374,-12999
69.207031,-213,355,-13063
69.222656,-224,382,-13178
69.238281,-215,417,-13226
69.253906,-209,474,-13215
69.269531,-249,533,-13224
69.285156,-288,507,-13178
69.300781,-249,385,-13072
69.316406,-261,351,-13083
69.332031,-290,394,-13135
69.347656,-245,405,-13122
69.363281,-233,457,-13151
69.378906,-211,492,-13226
69.394531,-165,494,-13197
69.410156,-174,451,-13161
69.425781,-229,378,-13179
69.441406,-267,417,-13115
69.457031,-279,424,-13078
69.472656,-275,401,-13120
69.488281,-242,412,-13138
69.503906,-225,401,-13165
; 69 stopping logging: shutdown: switched off
